%time,field.header.seq,field.header.stamp,field.header.frame_id,field.orientation.x,field.orientation.y,field.orientation.z,field.orientation.w,field.orientation_covariance0,field.orientation_covariance1,field.orientation_covariance2,field.orientation_covariance3,field.orientation_covariance4,field.orientation_covariance5,field.orientation_covariance6,field.orientation_covariance7,field.orientation_covariance8,field.angular_velocity.x,field.angular_velocity.y,field.angular_velocity.z,field.angular_velocity_covariance0,field.angular_velocity_covariance1,field.angular_velocity_covariance2,field.angular_velocity_covariance3,field.angular_velocity_covariance4,field.angular_velocity_covariance5,field.angular_velocity_covariance6,field.angular_velocity_covariance7,field.angular_velocity_covariance8,field.linear_acceleration.x,field.linear_acceleration.y,field.linear_acceleration.z,field.linear_acceleration_covariance0,field.linear_acceleration_covariance1,field.linear_acceleration_covariance2,field.linear_acceleration_covariance3,field.linear_acceleration_covariance4,field.linear_acceleration_covariance5,field.linear_acceleration_covariance6,field.linear_acceleration_covariance7,field.linear_acceleration_covariance8
1531943810963310395,653,1531943810962830689,base_link,0.192815652867,0.0357816614945,-0.0586542927737,-0.978826578434,1.0,0.0,0.0,0.0,1.0,0.0,0.0,0.0,1.0,2.04822897911,-0.148679882288,0.18908059597,1.21846967915e-07,0.0,0.0,0.0,1.21846967915e-07,0.0,0.0,0.0,1.21846967915e-07,1.8240369,-0.32361945,14.81784815,9e-08,0.0,0.0,0.0,9e-08,0.0,0.0,0.0,9e-08
1531943811376792958,654,1531943811376452610,base_link,-0.115040466481,0.0463108334785,-0.108915435493,-0.986285164486,1.0,0.0,0.0,0.0,1.0,0.0,0.0,0.0,1.0,0.408364027739,-0.191197872162,0.111469060183,1.21846967915e-07,0.0,0.0,0.0,1.21846967915e-07,0.0,0.0,0.0,1.21846967915e-07,0.06864655,0.3530394,11.83662655,9e-08,0.0,0.0,0.0,9e-08,0.0,0.0,0.0,9e-08
1531943811751721326,655,1531943811751139669,base_link,0.0893909549218,0.0853818927019,-0.110568628532,-0.986150986392,1.0,0.0,0.0,0.0,1.0,0.0,0.0,0.0,1.0,-1.13595020771,0.0584399700165,-0.0143232503906,1.21846967915e-07,0.0,0.0,0.0,1.21846967915e-07,0.0,0.0,0.0,1.21846967915e-07,-0.14709975,0.40207265,11.8856598,9e-08,0.0,0.0,0.0,9e-08,0.0,0.0,0.0,9e-08
1531943812045636073,656,1531943812045262574,base_link,0.222648565727,0.0928291957041,-0.0904932205825,-0.966240825899,1.0,0.0,0.0,0.0,1.0,0.0,0.0,0.0,1.0,-0.777475893497,-0.0152240563184,0.0192843638361,1.21846967915e-07,0.0,0.0,0.0,1.21846967915e-07,0.0,0.0,0.0,1.21846967915e-07,0.2941995,-0.18632635,9.89490985,9e-08,0.0,0.0,0.0,9e-08,0.0,0.0,0.0,9e-08
1531943812403996438,657,1531943812402769541,base_link,0.297462736201,0.099476162262,-0.109967832473,-0.943147649912,1.0,0.0,0.0,0.0,1.0,0.0,0.0,0.0,1.0,-0.232116565108,-0.137537032366,0.26390427351,1.21846967915e-07,0.0,0.0,0.0,1.21846967915e-07,0.0,0.0,0.0,1.21846967915e-07,1.372931,-0.40207265,8.12971285,9e-08,0.0,0.0,0.0,9e-08,0.0,0.0,0.0,9e-08
1531943812812059050,658,1531943812811618351,base_link,0.352863325419,0.136949070677,-0.177656852116,-0.908388941209,1.0,0.0,0.0,0.0,1.0,0.0,0.0,0.0,1.0,-0.283766031265,-0.288865119219,0.30848005414,1.21846967915e-07,0.0,0.0,0.0,1.21846967915e-07,0.0,0.0,0.0,1.21846967915e-07,1.81423025,-0.2745862,11.05209455,9e-08,0.0,0.0,0.0,9e-08,0.0,0.0,0.0,9e-08
1531943813352840975,659,1531943813351530559,base_link,0.374671410681,0.217356371889,-0.299898862849,-0.849963654328,1.0,0.0,0.0,0.0,1.0,0.0,0.0,0.0,1.0,-0.105808258057,-0.509014129639,0.288842856884,1.21846967915e-07,0.0,0.0,0.0,1.21846967915e-07,0.0,0.0,0.0,1.21846967915e-07,3.57942725,-0.02941995,18.4757286,9e-08,0.0,0.0,0.0,9e-08,0.0,0.0,0.0,9e-08
1531943813677620625,660,1531943813677341364,base_link,0.350326033984,0.275605336072,-0.383530294025,-0.808837364497,1.0,0.0,0.0,0.0,1.0,0.0,0.0,0.0,1.0,0.0454044826329,-0.569727957249,0.428021878004,1.21846967915e-07,0.0,0.0,0.0,1.21846967915e-07,0.0,0.0,0.0,1.21846967915e-07,3.40290755,-0.4707192,18.2992089,9e-08,0.0,0.0,0.0,9e-08,0.0,0.0,0.0,9e-08
1531943814007042648,661,1531943814006330689,base_link,0.328264529387,0.322558127562,-0.472648891994,-0.751532885499,1.0,0.0,0.0,0.0,1.0,0.0,0.0,0.0,1.0,-0.0256094112992,-0.600879848003,0.449950039387,1.21846967915e-07,0.0,0.0,0.0,1.21846967915e-07,0.0,0.0,0.0,1.21846967915e-07,3.0989014,-0.04903325,17.2008641,9e-08,0.0,0.0,0.0,9e-08,0.0,0.0,0.0,9e-08
1531943814331942913,662,1531943814327898772,base_link,0.288277570057,0.367327244058,-0.551564230681,-0.691190015703,1.0,0.0,0.0,0.0,1.0,0.0,0.0,0.0,1.0,0.256349921227,-0.679751455784,0.357788085938,1.21846967915e-07,0.0,0.0,0.0,1.21846967915e-07,0.0,0.0,0.0,1.21846967915e-07,2.8047019,-0.9218251,16.2398124,9e-08,0.0,0.0,0.0,9e-08,0.0,0.0,0.0,9e-08
1531943814739795375,663,1531943814739237942,base_link,0.226108829297,0.40992685242,-0.650250186156,-0.598338924342,1.0,0.0,0.0,0.0,1.0,0.0,0.0,0.0,1.0,0.2301761657,-0.560435831547,0.39729475975,1.21846967915e-07,0.0,0.0,0.0,1.21846967915e-07,0.0,0.0,0.0,1.21846967915e-07,2.7262487,-0.30400615,19.93691945,9e-08,0.0,0.0,0.0,9e-08,0.0,0.0,0.0,9e-08
1531943815065878762,664,1531943815065629710,base_link,0.162997675495,0.416341107835,-0.721099750799,-0.529251347762,1.0,0.0,0.0,0.0,1.0,0.0,0.0,0.0,1.0,0.559202075005,-0.650298953056,0.31594902277,1.21846967915e-07,0.0,0.0,0.0,1.21846967915e-07,0.0,0.0,0.0,1.21846967915e-07,1.36312435,0.1569064,17.6911966,9e-08,0.0,0.0,0.0,9e-08,0.0,0.0,0.0,9e-08
1531943815523144465,665,1531943815522741783,base_link,0.0330060528884,0.385235395776,-0.816158322496,-0.429406430941,1.0,0.0,0.0,0.0,1.0,0.0,0.0,0.0,1.0,0.723986506462,-0.452043622732,0.270409703255,1.21846967915e-07,0.0,0.0,0.0,1.21846967915e-07,0.0,0.0,0.0,1.21846967915e-07,0.44129925,0.0392266,17.46564365,9e-08,0.0,0.0,0.0,9e-08,0.0,0.0,0.0,9e-08
1531943815917907599,666,1531943815917549076,base_link,-0.0612180059232,0.252949559137,-0.893310599603,-0.366421954745,1.0,0.0,0.0,0.0,1.0,0.0,0.0,0.0,1.0,0.927370011806,-0.160982385278,0.144796937704,1.21846967915e-07,0.0,0.0,0.0,1.21846967915e-07,0.0,0.0,0.0,1.21846967915e-07,0.14709975,0.26477955,10.9246081,9e-08,0.0,0.0,0.0,9e-08,0.0,0.0,0.0,9e-08
1531943816171819784,667,1531943816171552779,base_link,-0.11635226086,0.138773124259,-0.923312717668,-0.338670631689,1.0,0.0,0.0,0.0,1.0,0.0,0.0,0.0,1.0,0.983466625214,-0.0304964352399,0.179187878966,1.21846967915e-07,0.0,0.0,0.0,1.21846967915e-07,0.0,0.0,0.0,1.21846967915e-07,-0.1176798,-0.1569064,11.40513395,9e-08,0.0,0.0,0.0,9e-08,0.0,0.0,0.0,9e-08
1531943816571451476,668,1531943816570664926,base_link,-0.135001096802,0.00524643866948,-0.943464530681,-0.302691027436,1.0,0.0,0.0,0.0,1.0,0.0,0.0,0.0,1.0,0.582703113556,0.285023331642,0.00438828533515,1.21846967915e-07,0.0,0.0,0.0,1.21846967915e-07,0.0,0.0,0.0,1.21846967915e-07,-0.10787315,0.69627215,7.01175475,9e-08,0.0,0.0,0.0,9e-08,0.0,0.0,0.0,9e-08
1531943816933792535,669,1531943816933415452,base_link,-0.120410275198,-0.078030566597,-0.938085196585,-0.315291548017,1.0,0.0,0.0,0.0,1.0,0.0,0.0,0.0,1.0,0.12123670429,0.144283547997,-0.192706421018,1.21846967915e-07,0.0,0.0,0.0,1.21846967915e-07,0.0,0.0,0.0,1.21846967915e-07,-0.20593965,0.3530394,5.85457005,9e-08,0.0,0.0,0.0,9e-08,0.0,0.0,0.0,9e-08
1531943817479285470,670,1531943817478890627,base_link,-0.0556786382508,-0.127272692989,-0.926922025484,-0.348593042866,1.0,0.0,0.0,0.0,1.0,0.0,0.0,0.0,1.0,-0.097155623138,0.347682505846,-0.0697623118758,1.21846967915e-07,0.0,0.0,0.0,1.21846967915e-07,0.0,0.0,0.0,1.21846967915e-07,-0.2549729,-0.42168595,3.69710705,9e-08,0.0,0.0,0.0,9e-08,0.0,0.0,0.0,9e-08
1531943817854049198,671,1531943817853529589,base_link,-0.00197314584217,-0.123409281308,-0.929073440411,-0.348695853583,1.0,0.0,0.0,0.0,1.0,0.0,0.0,0.0,1.0,-0.247485652566,0.240839719772,-0.0541746281087,1.21846967915e-07,0.0,0.0,0.0,1.21846967915e-07,0.0,0.0,0.0,1.21846967915e-07,-0.38245935,0.1569064,5.0013915,9e-08,0.0,0.0,0.0,9e-08,0.0,0.0,0.0,9e-08
1531943818366991611,672,1531943818366631423,base_link,0.0653923579899,-0.0776975450902,-0.920358733498,-0.377659545991,1.0,0.0,0.0,0.0,1.0,0.0,0.0,0.0,1.0,-0.0904142037034,0.0857492983341,-0.185951441526,1.21846967915e-07,0.0,0.0,0.0,1.21846967915e-07,0.0,0.0,0.0,1.21846967915e-07,-0.4118793,0.16671305,6.9431082,9e-08,0.0,0.0,0.0,9e-08,0.0,0.0,0.0,9e-08
1531943818723590457,673,1531943818719153488,base_link,0.0814520408563,-0.0719549181385,-0.910180871773,-0.399698430638,1.0,0.0,0.0,0.0,1.0,0.0,0.0,0.0,1.0,0.0172535348684,0.0630395486951,-0.0521114170551,1.21846967915e-07,0.0,0.0,0.0,1.21846967915e-07,0.0,0.0,0.0,1.21846967915e-07,-0.3530394,-0.12748645,8.11009955,9e-08,0.0,0.0,0.0,9e-08,0.0,0.0,0.0,9e-08
1531943819279822321,674,1531943819279303799,base_link,0.0863112826833,-0.0558918428228,-0.913955466735,-0.392570846107,1.0,0.0,0.0,0.0,1.0,0.0,0.0,0.0,1.0,-0.154719412327,0.00504298321903,0.0319934114814,1.21846967915e-07,0.0,0.0,0.0,1.21846967915e-07,0.0,0.0,0.0,1.21846967915e-07,-0.392266,0.0980665,10.4538889,9e-08,0.0,0.0,0.0,9e-08,0.0,0.0,0.0,9e-08
1531943819680125043,675,1531943819679694393,base_link,0.0768037873199,-0.0448940891266,-0.913821740625,-0.396251845897,1.0,0.0,0.0,0.0,1.0,0.0,0.0,0.0,1.0,0.00964825972915,-0.145009204745,-0.0358195602894,1.21846967915e-07,0.0,0.0,0.0,1.21846967915e-07,0.0,0.0,0.0,1.21846967915e-07,-0.6472389,0.26477955,10.73828175,9e-08,0.0,0.0,0.0,9e-08,0.0,0.0,0.0,9e-08
1531943820084000652,676,1531943820083779247,base_link,0.051835994526,-0.0299329499903,-0.911901219173,-0.406021199751,1.0,0.0,0.0,0.0,1.0,0.0,0.0,0.0,1.0,0.141607299447,-0.128241702914,-0.0308246463537,1.21846967915e-07,0.0,0.0,0.0,1.21846967915e-07,0.0,0.0,0.0,1.21846967915e-07,-0.4314926,0.32361945,11.8072066,9e-08,0.0,0.0,0.0,9e-08,0.0,0.0,0.0,9e-08
1531943820462583979,677,1531943820461643958,base_link,0.0122765907784,-0.052398385312,-0.913086877537,-0.404198031421,1.0,0.0,0.0,0.0,1.0,0.0,0.0,0.0,1.0,0.114318974316,-0.134247228503,0.00682967249304,1.21846967915e-07,0.0,0.0,0.0,1.21846967915e-07,0.0,0.0,0.0,1.21846967915e-07,-0.44129925,-0.12748645,11.73856005,9e-08,0.0,0.0,0.0,9e-08,0.0,0.0,0.0,9e-08
1531943820793614620,678,1531943820793188834,base_link,-0.0100312075736,-0.0644028404225,-0.909754500285,-0.409998046619,1.0,0.0,0.0,0.0,1.0,0.0,0.0,0.0,1.0,0.0826206952333,-0.0609196089208,-0.063675917685,1.21846967915e-07,0.0,0.0,0.0,1.21846967915e-07,0.0,0.0,0.0,1.21846967915e-07,-0.2157463,0.7060788,10.983448,9e-08,0.0,0.0,0.0,9e-08,0.0,0.0,0.0,9e-08
1531943821233863517,679,1531943821233489858,base_link,-0.0359607367602,-0.0930630747422,-0.894863034326,-0.435047398943,1.0,0.0,0.0,0.0,1.0,0.0,0.0,0.0,1.0,0.165507018566,-0.0853922069073,-0.124968193471,1.21846967915e-07,0.0,0.0,0.0,1.21846967915e-07,0.0,0.0,0.0,1.21846967915e-07,-0.1176798,0.392266,10.32640245,9e-08,0.0,0.0,0.0,9e-08,0.0,0.0,0.0,9e-08
1531943821663172780,680,1531943821661988283,base_link,-0.0693332454536,-0.131677714354,-0.87977736302,-0.451492715484,1.0,0.0,0.0,0.0,1.0,0.0,0.0,0.0,1.0,0.0919082313776,-0.0279238782823,-0.0686655789614,1.21846967915e-07,0.0,0.0,0.0,1.21846967915e-07,0.0,0.0,0.0,1.21846967915e-07,-0.04903325,0.2745862,10.07142955,9e-08,0.0,0.0,0.0,9e-08,0.0,0.0,0.0,9e-08
1531943822059054206,681,1531943822057979884,base_link,-0.0788608710061,-0.155485473236,-0.861064977945,-0.4776738787,1.0,0.0,0.0,0.0,1.0,0.0,0.0,0.0,1.0,0.190953999758,0.00889059621841,-0.263002604246,1.21846967915e-07,0.0,0.0,0.0,1.21846967915e-07,0.0,0.0,0.0,1.21846967915e-07,0.06864655,0.53936575,8.24739265,9e-08,0.0,0.0,0.0,9e-08,0.0,0.0,0.0,9e-08
1531943822376901254,682,1531943822376499659,base_link,-0.109862275803,-0.218550198799,-0.821868478427,-0.514488381917,1.0,0.0,0.0,0.0,1.0,0.0,0.0,0.0,1.0,0.611612558365,-0.0791478827596,-0.308182448149,1.21846967915e-07,0.0,0.0,0.0,1.21846967915e-07,0.0,0.0,0.0,1.21846967915e-07,0.3334261,0.28439285,9.30651085,9e-08,0.0,0.0,0.0,9e-08,0.0,0.0,0.0,9e-08
1531943822777384583,683,1531943822777072619,base_link,-0.175076457204,-0.280464773769,-0.766780525503,-0.550213931591,1.0,0.0,0.0,0.0,1.0,0.0,0.0,0.0,1.0,0.292934894562,-0.214551255107,-0.208498835564,1.21846967915e-07,0.0,0.0,0.0,1.21846967915e-07,0.0,0.0,0.0,1.21846967915e-07,0.73549875,0.71588545,10.97364135,9e-08,0.0,0.0,0.0,9e-08,0.0,0.0,0.0,9e-08
1531943823206567464,684,1531943823205995599,base_link,-0.202447951103,-0.284013785223,-0.70997486401,-0.611789742781,1.0,0.0,0.0,0.0,1.0,0.0,0.0,0.0,1.0,0.0655053630471,-0.179576769471,-0.474959015846,1.21846967915e-07,0.0,0.0,0.0,1.21846967915e-07,0.0,0.0,0.0,1.21846967915e-07,1.10815145,0.53936575,11.4541672,9e-08,0.0,0.0,0.0,9e-08,0.0,0.0,0.0,9e-08
1531943823576159156,685,1531943823575896504,base_link,-0.222732750323,-0.278384418963,-0.639194795186,-0.681411953974,1.0,0.0,0.0,0.0,1.0,0.0,0.0,0.0,1.0,0.118882440031,-0.292253732681,-0.389788091183,1.21846967915e-07,0.0,0.0,0.0,1.21846967915e-07,0.0,0.0,0.0,1.21846967915e-07,0.71588545,0.34323275,11.87585315,9e-08,0.0,0.0,0.0,9e-08,0.0,0.0,0.0,9e-08
1531943824027754149,686,1531943824027492265,base_link,-0.287166219124,-0.250010375907,-0.552910122932,-0.741161770798,1.0,0.0,0.0,0.0,1.0,0.0,0.0,0.0,1.0,0.0590702220798,-0.473059743643,-0.248604372144,1.21846967915e-07,0.0,0.0,0.0,1.21846967915e-07,0.0,0.0,0.0,1.21846967915e-07,1.08853815,0.3726527,14.2000292,9e-08,0.0,0.0,0.0,9e-08,0.0,0.0,0.0,9e-08
1531943824500283804,687,1531943824497806939,base_link,-0.334036320489,-0.200836844244,-0.468174497615,-0.793030225383,1.0,0.0,0.0,0.0,1.0,0.0,0.0,0.0,1.0,0.179030269384,-0.357571154833,-0.367217481136,1.21846967915e-07,0.0,0.0,0.0,1.21846967915e-07,0.0,0.0,0.0,1.21846967915e-07,0.9022118,0.91201845,13.83718315,9e-08,0.0,0.0,0.0,9e-08,0.0,0.0,0.0,9e-08
1531943824910246939,688,1531943824909998366,base_link,-0.377779402925,-0.150180297242,-0.364711062948,-0.837683974783,1.0,0.0,0.0,0.0,1.0,0.0,0.0,0.0,1.0,-0.0496714711189,-0.573751926422,-0.295984566212,1.21846967915e-07,0.0,0.0,0.0,1.21846967915e-07,0.0,0.0,0.0,1.21846967915e-07,1.55925735,0.4903325,15.69064,9e-08,0.0,0.0,0.0,9e-08,0.0,0.0,0.0,9e-08
1531943825333585309,689,1531943825333186466,base_link,-0.369282210772,-0.0819867090152,-0.27319136168,-0.884463288247,1.0,0.0,0.0,0.0,1.0,0.0,0.0,0.0,1.0,-0.331915229559,-0.436006784439,-0.351119160652,1.21846967915e-07,0.0,0.0,0.0,1.21846967915e-07,0.0,0.0,0.0,1.21846967915e-07,1.14737805,0.53936575,13.8469898,9e-08,0.0,0.0,0.0,9e-08,0.0,0.0,0.0,9e-08
1531943825706207765,690,1531943825705608637,base_link,-0.327582733336,-0.0186024538567,-0.197462556324,-0.923770556134,1.0,0.0,0.0,0.0,1.0,0.0,0.0,0.0,1.0,-0.393021076918,-0.332194596529,-0.216732606292,1.21846967915e-07,0.0,0.0,0.0,1.21846967915e-07,0.0,0.0,0.0,1.21846967915e-07,0.7060788,0.2941995,14.8864947,9e-08,0.0,0.0,0.0,9e-08,0.0,0.0,0.0,9e-08
1531943825973392520,691,1531943825970901511,base_link,-0.28279444154,0.0270577565659,-0.154935634879,-0.94619772283,1.0,0.0,0.0,0.0,1.0,0.0,0.0,0.0,1.0,-0.500093340874,-0.227761670947,-0.208345785737,1.21846967915e-07,0.0,0.0,0.0,1.21846967915e-07,0.0,0.0,0.0,1.21846967915e-07,0.4314926,0.51975245,13.99408955,9e-08,0.0,0.0,0.0,9e-08,0.0,0.0,0.0,9e-08
1531943826425197814,692,1531943826421364774,base_link,-0.15794653605,0.0581509896241,-0.0963330542547,-0.98101544168,1.0,0.0,0.0,0.0,1.0,0.0,0.0,0.0,1.0,-0.669100642204,-0.0149485580623,-0.194219723344,1.21846967915e-07,0.0,0.0,0.0,1.21846967915e-07,0.0,0.0,0.0,1.21846967915e-07,0.30400615,0.22555295,10.1596894,9e-08,0.0,0.0,0.0,9e-08,0.0,0.0,0.0,9e-08
1531943826815813818,693,1531943826815457310,base_link,-0.0449488463651,0.0697503208853,-0.0551096638347,-0.995026340807,1.0,0.0,0.0,0.0,1.0,0.0,0.0,0.0,1.0,-0.435644805431,0.0272425040603,-0.0835534930229,1.21846967915e-07,0.0,0.0,0.0,1.21846967915e-07,0.0,0.0,0.0,1.21846967915e-07,0.4903325,-0.00980665,11.3364874,9e-08,0.0,0.0,0.0,9e-08,0.0,0.0,0.0,9e-08
1531943827227189603,694,1531943827226688201,base_link,0.0228263635623,0.0679611159993,-0.0406595458038,-0.996597734883,1.0,0.0,0.0,0.0,1.0,0.0,0.0,0.0,1.0,-0.151406764984,0.0072830170393,-0.0427022017539,1.21846967915e-07,0.0,0.0,0.0,1.21846967915e-07,0.0,0.0,0.0,1.21846967915e-07,0.8237586,-0.1176798,8.85540495,9e-08,0.0,0.0,0.0,9e-08,0.0,0.0,0.0,9e-08
1531943827725572768,695,1531943827725181733,base_link,0.0660374103262,0.0583754813027,-0.050313769036,-0.994836613854,1.0,0.0,0.0,0.0,1.0,0.0,0.0,0.0,1.0,-0.0352502353489,0.0888255089521,0.113398842514,1.21846967915e-07,0.0,0.0,0.0,1.21846967915e-07,0.0,0.0,0.0,1.21846967915e-07,1.1375714,-0.06864655,8.5513988,9e-08,0.0,0.0,0.0,9e-08,0.0,0.0,0.0,9e-08
1531943828124052975,696,1531943828121162195,base_link,0.0842481858079,0.0452104414144,-0.0707723061237,-0.992899561819,1.0,0.0,0.0,0.0,1.0,0.0,0.0,0.0,1.0,-0.129684627056,0.0273287352175,0.071732878685,1.21846967915e-07,0.0,0.0,0.0,1.21846967915e-07,0.0,0.0,0.0,1.21846967915e-07,1.0198916,0.24516625,7.95319315,9e-08,0.0,0.0,0.0,9e-08,0.0,0.0,0.0,9e-08
1531943828558824550,697,1531943828558584041,base_link,0.110580212483,0.0254510013005,-0.0868808235329,-0.9897353109,1.0,0.0,0.0,0.0,1.0,0.0,0.0,0.0,1.0,0.228398099542,0.0974652916193,0.0536396577954,1.21846967915e-07,0.0,0.0,0.0,1.21846967915e-07,0.0,0.0,0.0,1.21846967915e-07,1.1964113,9.69181380402e-16,7.91396655,9e-08,0.0,0.0,0.0,9e-08,0.0,0.0,0.0,9e-08
1531943828898618415,698,1531943828898240563,base_link,0.0636345595785,0.0149446024873,-0.105159367404,-0.992304796487,1.0,0.0,0.0,0.0,1.0,0.0,0.0,0.0,1.0,0.306445926428,-0.00798338837922,0.144717171788,1.21846967915e-07,0.0,0.0,0.0,1.21846967915e-07,0.0,0.0,0.0,1.21846967915e-07,1.2748645,0.06864655,9.218251,9e-08,0.0,0.0,0.0,9e-08,0.0,0.0,0.0,9e-08
1531943829333810089,699,1531943829329202210,base_link,4.95975664359e-05,-0.00818831984887,-0.128623831466,-0.991659648739,1.0,0.0,0.0,0.0,1.0,0.0,0.0,0.0,1.0,0.298948645592,0.0548645481467,0.0456643104553,1.21846967915e-07,0.0,0.0,0.0,1.21846967915e-07,0.0,0.0,0.0,1.21846967915e-07,1.30428445,0.1372931,9.6497436,9e-08,0.0,0.0,0.0,9e-08,0.0,0.0,0.0,9e-08
1531943829773037685,700,1531943829770609875,base_link,-0.0411953023505,-0.0196113052937,-0.12295935401,-0.991362366156,1.0,0.0,0.0,0.0,1.0,0.0,0.0,0.0,1.0,0.100152894855,-0.0528750047088,-0.0908854305744,1.21846967915e-07,0.0,0.0,0.0,1.21846967915e-07,0.0,0.0,0.0,1.21846967915e-07,0.8237586,0.36284605,9.73800345,9e-08,0.0,0.0,0.0,9e-08,0.0,0.0,0.0,9e-08
1531943830216543825,701,1531943830216275157,base_link,-0.0705203179902,-0.0128141969661,-0.0836716188944,-0.993912340852,1.0,0.0,0.0,0.0,1.0,0.0,0.0,0.0,1.0,-0.158774927258,-0.0605742372572,-0.329002022743,1.21846967915e-07,0.0,0.0,0.0,1.21846967915e-07,0.0,0.0,0.0,1.21846967915e-07,0.6276256,0.61781895,12.6701918,9e-08,0.0,0.0,0.0,9e-08,0.0,0.0,0.0,9e-08
1531943830671922114,702,1531943830671638118,base_link,-0.0766937688667,-0.0201003599378,-0.0179994952454,-0.99668955022,1.0,0.0,0.0,0.0,1.0,0.0,0.0,0.0,1.0,0.0294536240399,-0.040070746094,-0.195521131158,1.21846967915e-07,0.0,0.0,0.0,1.21846967915e-07,0.0,0.0,0.0,1.21846967915e-07,0.28439285,-0.2941995,7.83551335,9e-08,0.0,0.0,0.0,9e-08,0.0,0.0,0.0,9e-08
1531943831038458165,703,1531943831037133478,base_link,-0.0941950445477,-0.00460902482526,-0.00685058555384,-0.995519522636,1.0,0.0,0.0,0.0,1.0,0.0,0.0,0.0,1.0,0.118952549994,-0.0951441451907,0.0810247287154,1.21846967915e-07,0.0,0.0,0.0,1.21846967915e-07,0.0,0.0,0.0,1.21846967915e-07,0.20593965,-0.18632635,10.99325465,9e-08,0.0,0.0,0.0,9e-08,0.0,0.0,0.0,9e-08
1531943831414700601,704,1531943831414438076,base_link,-0.0544891368912,0.0212331967645,-0.0324654352626,-0.997760532808,1.0,0.0,0.0,0.0,1.0,0.0,0.0,0.0,1.0,-0.420995235443,-0.136662691832,0.14262676239,1.21846967915e-07,0.0,0.0,0.0,1.21846967915e-07,0.0,0.0,0.0,1.21846967915e-07,0.8629852,0.18632635,12.05237285,9e-08,0.0,0.0,0.0,9e-08,0.0,0.0,0.0,9e-08
1531943831783772116,705,1531943831783532215,base_link,0.0085846498301,0.0184710876475,-0.0368389020588,-0.999113616164,1.0,0.0,0.0,0.0,1.0,0.0,0.0,0.0,1.0,-0.131563395262,0.141743883491,-0.153539463878,1.21846967915e-07,0.0,0.0,0.0,1.21846967915e-07,0.0,0.0,0.0,1.21846967915e-07,0.32361945,0.67665885,8.9632781,9e-08,0.0,0.0,0.0,9e-08,0.0,0.0,0.0,9e-08
1531943832137587214,706,1531943832136372509,base_link,0.000571770916874,0.00336108071606,-0.00943639218232,-0.999949664092,1.0,0.0,0.0,0.0,1.0,0.0,0.0,0.0,1.0,0.158028125763,0.0113188419491,-0.0769645944238,1.21846967915e-07,0.0,0.0,0.0,1.21846967915e-07,0.0,0.0,0.0,1.21846967915e-07,0.5099458,-0.50013915,9.2378643,9e-08,0.0,0.0,0.0,9e-08,0.0,0.0,0.0,9e-08
1531943832416762749,707,1531943832416071141,base_link,-0.00961954650897,-0.00428181037559,-0.0148627383833,-0.999834100955,1.0,0.0,0.0,0.0,1.0,0.0,0.0,0.0,1.0,0.0178154595196,-0.0720835924149,0.0766749829054,1.21846967915e-07,0.0,0.0,0.0,1.21846967915e-07,0.0,0.0,0.0,1.21846967915e-07,0.2745862,-0.1372931,8.6494653,9e-08,0.0,0.0,0.0,9e-08,0.0,0.0,0.0,9e-08
1531943832754471489,708,1531943832754052838,base_link,-0.0199080765306,0.00452644778712,-0.0258803766909,-0.999456545259,1.0,0.0,0.0,0.0,1.0,0.0,0.0,0.0,1.0,-0.0456756055355,-0.00156419910491,0.0157922580838,1.21846967915e-07,0.0,0.0,0.0,1.21846967915e-07,0.0,0.0,0.0,1.21846967915e-07,0.392266,0.5295591,10.77750835,9e-08,0.0,0.0,0.0,9e-08,0.0,0.0,0.0,9e-08
1531943833194736997,709,1531943833194386537,base_link,-0.00803591337437,0.00922100910135,-0.0208721848059,-0.999707331667,1.0,0.0,0.0,0.0,1.0,0.0,0.0,0.0,1.0,0.0223449524492,0.0426018089056,-0.0233808998019,1.21846967915e-07,0.0,0.0,0.0,1.21846967915e-07,0.0,0.0,0.0,1.21846967915e-07,0.1569064,1.28983990403e-15,10.5323421,9e-08,0.0,0.0,0.0,9e-08,0.0,0.0,0.0,9e-08
1531943833556274510,710,1531943833555650294,base_link,-0.0184991119388,-0.00415731623699,-0.0278165808122,-0.999433208079,1.0,0.0,0.0,0.0,1.0,0.0,0.0,0.0,1.0,0.0182000994682,0.032681658864,0.0417346842587,1.21846967915e-07,0.0,0.0,0.0,1.21846967915e-07,0.0,0.0,0.0,1.21846967915e-07,0.06864655,0.12748645,7.9629998,9e-08,0.0,0.0,0.0,9e-08,0.0,0.0,0.0,9e-08
1531943833869954398,711,1531943833869711457,base_link,0.0205092757256,-0.00715729215932,-0.0306804079299,-0.999293177875,1.0,0.0,0.0,0.0,1.0,0.0,0.0,0.0,1.0,-0.133743956685,0.0388345830142,-0.0655050352216,1.21846967915e-07,0.0,0.0,0.0,1.21846967915e-07,0.0,0.0,0.0,1.21846967915e-07,0.02941995,0.4118793,9.79684335,9e-08,0.0,0.0,0.0,9e-08,0.0,0.0,0.0,9e-08
1531943834295408707,712,1531943834294881065,base_link,0.027407632172,-0.0166241088737,-0.0145158148658,-0.999380684135,1.0,0.0,0.0,0.0,1.0,0.0,0.0,0.0,1.0,-0.00892941467464,0.026774212718,-0.0569442845881,1.21846967915e-07,0.0,0.0,0.0,1.21846967915e-07,0.0,0.0,0.0,1.21846967915e-07,-0.0980665,-0.0588399,9.01231135,9e-08,0.0,0.0,0.0,9e-08,0.0,0.0,0.0,9e-08
1531943834635213021,713,1531943834633300052,base_link,-0.0343195080879,-0.013054813579,-0.0172573414577,-0.999176624713,1.0,0.0,0.0,0.0,1.0,0.0,0.0,0.0,1.0,0.445882260799,-0.00724838115275,0.0435361862183,1.21846967915e-07,0.0,0.0,0.0,1.21846967915e-07,0.0,0.0,0.0,1.21846967915e-07,0.02941995,1.40152995158e-15,11.44436055,9e-08,0.0,0.0,0.0,9e-08,0.0,0.0,0.0,9e-08
1531943834988651888,714,1531943834988292789,base_link,-0.0429518380496,-0.00946656388702,-0.0375324313663,-0.998327020756,1.0,0.0,0.0,0.0,1.0,0.0,0.0,0.0,1.0,0.0403399169445,-0.0271217636764,0.0888740569353,1.21846967915e-07,0.0,0.0,0.0,1.21846967915e-07,0.0,0.0,0.0,1.21846967915e-07,0.0196133,0.48052585,8.65927195,9e-08,0.0,0.0,0.0,9e-08,0.0,0.0,0.0,9e-08
1531943835397383214,715,1531943835396994546,base_link,-0.0252831549471,-0.0111588769846,-0.0322502212485,-0.99909767529,1.0,0.0,0.0,0.0,1.0,0.0,0.0,0.0,1.0,-0.244409069419,0.0818596258759,-0.036985501647,1.21846967915e-07,0.0,0.0,0.0,1.21846967915e-07,0.0,0.0,0.0,1.21846967915e-07,0.3726527,0.0196133,11.13054775,9e-08,0.0,0.0,0.0,9e-08,0.0,0.0,0.0,9e-08
1531943835696028548,716,1531943835693304101,base_link,0.0175959097341,-0.0137416769714,-0.0314316897149,-0.999256523199,1.0,0.0,0.0,0.0,1.0,0.0,0.0,0.0,1.0,0.595462083817,0.0202711448073,0.0811455100775,1.21846967915e-07,0.0,0.0,0.0,1.21846967915e-07,0.0,0.0,0.0,1.21846967915e-07,0.3334261,-0.8825985,6.080123,9e-08,0.0,0.0,0.0,9e-08,0.0,0.0,0.0,9e-08
1531943836058591283,717,1531943836058270327,base_link,-0.0127168710724,-0.0110762965841,-0.0609873697323,-0.997996060903,1.0,0.0,0.0,0.0,1.0,0.0,0.0,0.0,1.0,-0.235766291618,-0.00210402719676,0.118918046355,1.21846967915e-07,0.0,0.0,0.0,1.21846967915e-07,0.0,0.0,0.0,1.21846967915e-07,0.26477955,0.4903325,9.40457735,9e-08,0.0,0.0,0.0,9e-08,0.0,0.0,0.0,9e-08
1531943836507002809,718,1531943836503590754,base_link,0.00856143858684,-0.025148003174,-0.0579148772756,-0.997968008854,1.0,0.0,0.0,0.0,1.0,0.0,0.0,0.0,1.0,0.278782457113,0.0276458747685,-0.10436091572,1.21846967915e-07,0.0,0.0,0.0,1.21846967915e-07,0.0,0.0,0.0,1.21846967915e-07,0.93163175,0.34323275,9.63993695,9e-08,0.0,0.0,0.0,9e-08,0.0,0.0,0.0,9e-08
1531943836914323089,719,1531943836914035605,base_link,0.0152356874208,-0.0174705900922,-0.0478172483486,-0.998587083369,1.0,0.0,0.0,0.0,1.0,0.0,0.0,0.0,1.0,-0.207407459617,0.00437632855028,-0.0191802959889,1.21846967915e-07,0.0,0.0,0.0,1.21846967915e-07,0.0,0.0,0.0,1.21846967915e-07,0.5687857,0.67665885,11.6699135,9e-08,0.0,0.0,0.0,9e-08,0.0,0.0,0.0,9e-08
1531943837408970768,720,1531943837408205785,base_link,0.0265087356199,-0.00958428285045,-0.0288784466904,-0.999185400101,1.0,0.0,0.0,0.0,1.0,0.0,0.0,0.0,1.0,0.15641912818,-0.0371134132147,-0.00192165188491,1.21846967915e-07,0.0,0.0,0.0,1.21846967915e-07,0.0,0.0,0.0,1.21846967915e-07,0.3138128,-0.22555295,11.571847,9e-08,0.0,0.0,0.0,9e-08,0.0,0.0,0.0,9e-08
1531943837875640995,721,1531943837875112393,base_link,0.00599779224047,0.012910692836,-0.0459856589306,-0.998840657799,1.0,0.0,0.0,0.0,1.0,0.0,0.0,0.0,1.0,0.0651769340038,0.0510920807719,0.0520951747894,1.21846967915e-07,0.0,0.0,0.0,1.21846967915e-07,0.0,0.0,0.0,1.21846967915e-07,0.0784532,0.28439285,11.36590735,9e-08,0.0,0.0,0.0,9e-08,0.0,0.0,0.0,9e-08
1531943838177773920,722,1531943838168628367,base_link,-0.00185803060121,0.00956441350938,-0.0528220235838,-0.998556409794,1.0,0.0,0.0,0.0,1.0,0.0,0.0,0.0,1.0,0.14471308887,-0.00899984687567,0.0725025758147,1.21846967915e-07,0.0,0.0,0.0,1.21846967915e-07,0.0,0.0,0.0,1.21846967915e-07,0.1372931,0.2745862,9.63993695,9e-08,0.0,0.0,0.0,9e-08,0.0,0.0,0.0,9e-08
1531943838601612035,723,1531943838600453265,base_link,-0.0347861145137,0.01073964843,-0.0525819073988,-0.997952769024,1.0,0.0,0.0,0.0,1.0,0.0,0.0,0.0,1.0,0.153478145599,-0.0376599095762,-0.11200901866,1.21846967915e-07,0.0,0.0,0.0,1.21846967915e-07,0.0,0.0,0.0,1.21846967915e-07,0.2157463,0.3530394,8.12971285,9e-08,0.0,0.0,0.0,9e-08,0.0,0.0,0.0,9e-08
1531943838975567232,724,1531943838974849576,base_link,-0.050426987226,0.0124392219145,-0.0357964048934,-0.998008518057,1.0,0.0,0.0,0.0,1.0,0.0,0.0,0.0,1.0,0.0394812487066,0.0100637404248,-0.0505717098713,1.21846967915e-07,0.0,0.0,0.0,1.21846967915e-07,0.0,0.0,0.0,1.21846967915e-07,0.16671305,0.28439285,10.9246081,9e-08,0.0,0.0,0.0,9e-08,0.0,0.0,0.0,9e-08
1531943839398836946,725,1531943839398402615,base_link,-0.0596497125096,0.00395580717235,-0.0387404407503,-0.997459493733,1.0,0.0,0.0,0.0,1.0,0.0,0.0,0.0,1.0,0.035843718797,0.0307515002787,0.0761285573244,1.21846967915e-07,0.0,0.0,0.0,1.21846967915e-07,0.0,0.0,0.0,1.21846967915e-07,0.24516625,-0.5099458,6.14876955,9e-08,0.0,0.0,0.0,9e-08,0.0,0.0,0.0,9e-08
1531943839831638162,726,1531943839830212995,base_link,-0.0909923259196,0.00244630937336,-0.0471092664893,-0.994733697632,1.0,0.0,0.0,0.0,1.0,0.0,0.0,0.0,1.0,0.300837576389,0.0879284888506,-0.0998965203762,1.21846967915e-07,0.0,0.0,0.0,1.21846967915e-07,0.0,0.0,0.0,1.21846967915e-07,0.2941995,0.42168595,10.03220295,9e-08,0.0,0.0,0.0,9e-08,0.0,0.0,0.0,9e-08
1531943840314272833,727,1531943840312434871,base_link,-0.138008451557,-0.00677296701645,0.0037490214549,-0.99040079718,1.0,0.0,0.0,0.0,1.0,0.0,0.0,0.0,1.0,0.517946302891,-0.0792246088386,-0.167643383145,1.21846967915e-07,0.0,0.0,0.0,1.21846967915e-07,0.0,0.0,0.0,1.21846967915e-07,-0.1176798,-0.3530394,9.0025047,9e-08,0.0,0.0,0.0,9e-08,0.0,0.0,0.0,9e-08
1531943840730411539,728,1531943840729830234,base_link,-0.209982178952,0.0049403774512,0.0178140569504,-0.977530427439,1.0,0.0,0.0,0.0,1.0,0.0,0.0,0.0,1.0,0.151223808527,-0.146231025457,-0.0542377643287,1.21846967915e-07,0.0,0.0,0.0,1.21846967915e-07,0.0,0.0,0.0,1.21846967915e-07,0.2549729,0.2941995,10.7284751,9e-08,0.0,0.0,0.0,9e-08,0.0,0.0,0.0,9e-08
1531943841023419823,729,1531943841023136946,base_link,-0.234522007195,0.0197490572946,0.0426370695869,-0.970974501815,1.0,0.0,0.0,0.0,1.0,0.0,0.0,0.0,1.0,0.165957391262,-0.0622140578926,-0.224916487932,1.21846967915e-07,0.0,0.0,0.0,1.21846967915e-07,0.0,0.0,0.0,1.21846967915e-07,0.3334261,0.50013915,11.1599677,9e-08,0.0,0.0,0.0,9e-08,0.0,0.0,0.0,9e-08
1531943841483396924,730,1531943841482355016,base_link,-0.279774558643,0.0150815692838,0.118337870189,-0.952625262673,1.0,0.0,0.0,0.0,1.0,0.0,0.0,0.0,1.0,0.169983029366,-0.180925697088,-0.338513791561,1.21846967915e-07,0.0,0.0,0.0,1.21846967915e-07,0.0,0.0,0.0,1.21846967915e-07,-0.0980665,0.3138128,8.85540495,9e-08,0.0,0.0,0.0,9e-08,0.0,0.0,0.0,9e-08
1531943841775595720,731,1531943841775242956,base_link,-0.312339089506,0.0373657718104,0.170016802444,-0.933885634942,1.0,0.0,0.0,0.0,1.0,0.0,0.0,0.0,1.0,0.202903196216,-0.185235157609,-0.287330627441,1.21846967915e-07,0.0,0.0,0.0,1.21846967915e-07,0.0,0.0,0.0,1.21846967915e-07,0.0784532,0.5099458,12.0229529,9e-08,0.0,0.0,0.0,9e-08,0.0,0.0,0.0,9e-08
1531943842138496517,732,1531943842138243592,base_link,-0.337207539807,0.0800413700879,0.231885187069,-0.908907978945,1.0,0.0,0.0,0.0,1.0,0.0,0.0,0.0,1.0,0.00214989762753,-0.38762396574,-0.256013095379,1.21846967915e-07,0.0,0.0,0.0,1.21846967915e-07,0.0,0.0,0.0,1.21846967915e-07,0.3530394,0.3726527,14.87668805,9e-08,0.0,0.0,0.0,9e-08,0.0,0.0,0.0,9e-08
1531943842530093040,733,1531943842529324922,base_link,-0.364063530863,0.103370822776,0.296368115961,-0.876891189564,1.0,0.0,0.0,0.0,1.0,0.0,0.0,0.0,1.0,-0.119200095534,-0.170135423541,-0.492786079645,1.21846967915e-07,0.0,0.0,0.0,1.21846967915e-07,0.0,0.0,0.0,1.21846967915e-07,-0.18632635,0.95124505,8.7475318,9e-08,0.0,0.0,0.0,9e-08,0.0,0.0,0.0,9e-08
1531943842774196547,734,1531943842773775720,base_link,-0.35769093965,0.10578755164,0.364884621677,-0.853068226155,1.0,0.0,0.0,0.0,1.0,0.0,0.0,0.0,1.0,-0.0271817948669,-0.328218579292,-0.55580753088,1.21846967915e-07,0.0,0.0,0.0,1.21846967915e-07,0.0,0.0,0.0,1.21846967915e-07,-0.0980665,0.61781895,10.44408225,9e-08,0.0,0.0,0.0,9e-08,0.0,0.0,0.0,9e-08
1531943843136441777,735,1531943843134399561,base_link,-0.350661852524,0.138840440103,0.454092437604,-0.80719245257,1.0,0.0,0.0,0.0,1.0,0.0,0.0,0.0,1.0,0.0770320519805,-0.478116333485,-0.350994765759,1.21846967915e-07,0.0,0.0,0.0,1.21846967915e-07,0.0,0.0,0.0,1.21846967915e-07,-0.02941995,0.3530394,14.3569356,9e-08,0.0,0.0,0.0,9e-08,0.0,0.0,0.0,9e-08
1531943843480108354,736,1531943843479431306,base_link,-0.324581410599,0.188694967488,0.521533669228,-0.766187802696,1.0,0.0,0.0,0.0,1.0,0.0,0.0,0.0,1.0,-0.152650266886,-0.430809020996,-0.248579651117,1.21846967915e-07,0.0,0.0,0.0,1.21846967915e-07,0.0,0.0,0.0,1.21846967915e-07,-0.00980665,0.6472389,15.24934075,9e-08,0.0,0.0,0.0,9e-08,0.0,0.0,0.0,9e-08
1531943843917659184,737,1531943843915706087,base_link,-0.260360274592,0.212671262793,0.601772488112,-0.724467621049,1.0,0.0,0.0,0.0,1.0,0.0,0.0,0.0,1.0,-0.0751125067472,-0.306963443756,-0.3507784307,1.21846967915e-07,0.0,0.0,0.0,1.21846967915e-07,0.0,0.0,0.0,1.21846967915e-07,0.1569064,0.2549729,15.46508705,9e-08,0.0,0.0,0.0,9e-08,0.0,0.0,0.0,9e-08
1531943844416106094,738,1531943844415429751,base_link,0.192241433306,-0.230546214398,-0.670232551849,0.678734116418,1.0,0.0,0.0,0.0,1.0,0.0,0.0,0.0,1.0,-0.0330271013081,-0.290455400944,-0.194106653333,1.21846967915e-07,0.0,0.0,0.0,1.21846967915e-07,0.0,0.0,0.0,1.21846967915e-07,-0.20593965,0.14709975,12.24850585,9e-08,0.0,0.0,0.0,9e-08,0.0,0.0,0.0,9e-08
1531943844902050564,739,1531943844901204143,base_link,0.0904104166896,-0.186766499063,-0.730472182023,0.650657069947,1.0,0.0,0.0,0.0,1.0,0.0,0.0,0.0,1.0,-0.735522866249,-0.197273179889,-0.198175504804,1.21846967915e-07,0.0,0.0,0.0,1.21846967915e-07,0.0,0.0,0.0,1.21846967915e-07,0.3530394,0.36284605,13.7096967,9e-08,0.0,0.0,0.0,9e-08,0.0,0.0,0.0,9e-08
1531943845221533027,740,1531943845220488975,base_link,0.0131696569205,-0.115904568695,-0.764780611065,0.633642886831,1.0,0.0,0.0,0.0,1.0,0.0,0.0,0.0,1.0,-0.621992826462,-0.030726371333,-0.122745551169,1.21846967915e-07,0.0,0.0,0.0,1.21846967915e-07,0.0,0.0,0.0,1.21846967915e-07,0.2549729,0.3334261,12.160246,9e-08,0.0,0.0,0.0,9e-08,0.0,0.0,0.0,9e-08
1531943845619406365,741,1531943845615277294,base_link,-0.0521175142526,-0.0338422875237,-0.783272188165,0.618565391475,1.0,0.0,0.0,0.0,1.0,0.0,0.0,0.0,1.0,-0.413869380951,0.034914188087,-0.0167656783015,1.21846967915e-07,0.0,0.0,0.0,1.21846967915e-07,0.0,0.0,0.0,1.21846967915e-07,0.0392266,-0.26477955,9.1594111,9e-08,0.0,0.0,0.0,9e-08,0.0,0.0,0.0,9e-08
1531943846155457484,742,1531943846155012626,base_link,-0.0842234690668,0.0351392621334,-0.771653135656,0.629462530853,1.0,0.0,0.0,0.0,1.0,0.0,0.0,0.0,1.0,-0.228955119848,0.116710275412,0.136307939887,1.21846967915e-07,0.0,0.0,0.0,1.21846967915e-07,0.0,0.0,0.0,1.21846967915e-07,0.22555295,-0.1372931,7.83551335,9e-08,0.0,0.0,0.0,9e-08,0.0,0.0,0.0,9e-08
1531943846615758313,743,1531943846615279567,base_link,-0.105894135006,0.0758726878256,-0.7516325633,0.646589713188,1.0,0.0,0.0,0.0,1.0,0.0,0.0,0.0,1.0,-0.191173031926,-0.00214630737901,0.099508151412,1.21846967915e-07,0.0,0.0,0.0,1.21846967915e-07,0.0,0.0,0.0,1.21846967915e-07,0.784532,-0.0980665,9.36535075,9e-08,0.0,0.0,0.0,9e-08,0.0,0.0,0.0,9e-08
1531943846972984912,744,1531943846972615380,base_link,-0.103857196158,0.0758340285345,-0.733579430328,0.667326083952,1.0,0.0,0.0,0.0,1.0,0.0,0.0,0.0,1.0,0.091072961688,0.00385690201074,0.182000443339,1.21846967915e-07,0.0,0.0,0.0,1.21846967915e-07,0.0,0.0,0.0,1.21846967915e-07,0.69627215,0.1569064,9.75761675,9e-08,0.0,0.0,0.0,9e-08,0.0,0.0,0.0,9e-08
1531943847365994549,745,1531943847365651513,base_link,-0.0802580678598,0.067770883042,-0.719846133615,0.686139412856,1.0,0.0,0.0,0.0,1.0,0.0,0.0,0.0,1.0,0.246140599251,0.0292285569012,0.0748519077897,1.21846967915e-07,0.0,0.0,0.0,1.21846967915e-07,0.0,0.0,0.0,1.21846967915e-07,0.73549875,0.1569064,8.28661925,9e-08,0.0,0.0,0.0,9e-08,0.0,0.0,0.0,9e-08
1531943847773976457,746,1531943847771246890,base_link,-0.0269871170454,0.0381542055888,-0.711845834908,0.700779180223,1.0,0.0,0.0,0.0,1.0,0.0,0.0,0.0,1.0,0.170078590512,0.103559866548,0.0643839240074,1.21846967915e-07,0.0,0.0,0.0,1.21846967915e-07,0.0,0.0,0.0,1.21846967915e-07,0.9414384,0.00980665,7.9826131,9e-08,0.0,0.0,0.0,9e-08,0.0,0.0,0.0,9e-08
1531943848242774640,747,1531943848242385429,base_link,0.00310546167509,0.022558871358,-0.708393847993,0.705449934125,1.0,0.0,0.0,0.0,1.0,0.0,0.0,0.0,1.0,0.172498747706,-0.058442145586,0.0113530047238,1.21846967915e-07,0.0,0.0,0.0,1.21846967915e-07,0.0,0.0,0.0,1.21846967915e-07,0.95124505,-0.0196133,8.87501825,9e-08,0.0,0.0,0.0,9e-08,0.0,0.0,0.0,9e-08
1531943848524224680,748,1531943848522734777,base_link,-0.0149166133963,-0.000442104136438,0.700998442084,-0.713006650309,1.0,0.0,0.0,0.0,1.0,0.0,0.0,0.0,1.0,0.0938764438033,-0.0433139652014,0.0443989448249,1.21846967915e-07,0.0,0.0,0.0,1.21846967915e-07,0.0,0.0,0.0,1.21846967915e-07,1.0198916,0.1372931,9.9635564,9e-08,0.0,0.0,0.0,9e-08,0.0,0.0,0.0,9e-08
1531943848977430123,749,1531943848976622709,base_link,-0.03431089929,0.0176056025645,0.696008794157,-0.716996906133,1.0,0.0,0.0,0.0,1.0,0.0,0.0,0.0,1.0,0.0200464874506,-0.0526474788785,0.039597466588,1.21846967915e-07,0.0,0.0,0.0,1.21846967915e-07,0.0,0.0,0.0,1.21846967915e-07,0.5687857,0.3726527,9.77723005,9e-08,0.0,0.0,0.0,9e-08,0.0,0.0,0.0,9e-08
1531943849474343219,750,1531943849473969816,base_link,0.0295192959987,-0.0329262760136,-0.707967985845,0.704858711041,1.0,0.0,0.0,0.0,1.0,0.0,0.0,0.0,1.0,0.043799649924,-0.0995639786124,-0.157918795943,1.21846967915e-07,0.0,0.0,0.0,1.21846967915e-07,0.0,0.0,0.0,1.21846967915e-07,0.392266,0.4511059,11.7483667,9e-08,0.0,0.0,0.0,9e-08,0.0,0.0,0.0,9e-08
1531943849911079524,751,1531943849910750760,base_link,0.035252086587,-0.0504805354555,-0.719958515893,0.691280508422,1.0,0.0,0.0,0.0,1.0,0.0,0.0,0.0,1.0,-0.101004637778,0.00170137174428,0.0408575572073,1.21846967915e-07,0.0,0.0,0.0,1.21846967915e-07,0.0,0.0,0.0,1.21846967915e-07,0.3334261,-0.00980665,10.6696352,9e-08,0.0,0.0,0.0,9e-08,0.0,0.0,0.0,9e-08
1531943850415537053,752,1531943850415018339,base_link,0.0046148601726,-0.0190605153923,-0.720934373471,0.692725796378,1.0,0.0,0.0,0.0,1.0,0.0,0.0,0.0,1.0,0.0401375740767,0.014408191666,-0.0380861759186,1.21846967915e-07,0.0,0.0,0.0,1.21846967915e-07,0.0,0.0,0.0,1.21846967915e-07,0.0,0.02941995,7.7472535,9e-08,0.0,0.0,0.0,9e-08,0.0,0.0,0.0,9e-08
1531943850808768281,753,1531943850808539740,base_link,0.00285503328017,-0.00473810455389,-0.719775064023,0.694185318457,1.0,0.0,0.0,0.0,1.0,0.0,0.0,0.0,1.0,-0.106439113617,-0.0543349906802,0.0342426635325,1.21846967915e-07,0.0,0.0,0.0,1.21846967915e-07,0.0,0.0,0.0,1.21846967915e-07,-0.0196133,0.1372931,8.12971285,9e-08,0.0,0.0,0.0,9e-08,0.0,0.0,0.0,9e-08
1531943851339020873,754,1531943851335192215,base_link,-0.0282194340875,0.0148997403826,-0.715734896402,0.697642615778,1.0,0.0,0.0,0.0,1.0,0.0,0.0,0.0,1.0,-0.160362571478,-0.0339718982577,0.00755859864876,1.21846967915e-07,0.0,0.0,0.0,1.21846967915e-07,0.0,0.0,0.0,1.21846967915e-07,0.59820565,0.06864655,11.5914603,9e-08,0.0,0.0,0.0,9e-08,0.0,0.0,0.0,9e-08
1531943851648401482,755,1531943851647999182,base_link,-0.0279159967618,0.0222221850827,-0.71497025771,0.698243798544,1.0,0.0,0.0,0.0,1.0,0.0,0.0,0.0,1.0,0.0892569944263,-0.0101940538734,-0.00931860227138,1.21846967915e-07,0.0,0.0,0.0,1.21846967915e-07,0.0,0.0,0.0,1.21846967915e-07,0.34323275,-0.00980665,8.9828914,9e-08,0.0,0.0,0.0,9e-08,0.0,0.0,0.0,9e-08
1531943851906131595,756,1531943851905729712,base_link,-0.0224780196502,0.00522716653856,-0.715211687911,0.698526776035,1.0,0.0,0.0,0.0,1.0,0.0,0.0,0.0,1.0,0.176646962762,-0.0656166672707,-0.00056802527979,1.21846967915e-07,0.0,0.0,0.0,1.21846967915e-07,0.0,0.0,0.0,1.21846967915e-07,0.24516625,0.0196133,10.14988275,9e-08,0.0,0.0,0.0,9e-08,0.0,0.0,0.0,9e-08
1531943852204172981,757,1531943852203931160,base_link,-0.00828980073569,-0.014847566941,-0.713363483993,0.700587873622,1.0,0.0,0.0,0.0,1.0,0.0,0.0,0.0,1.0,0.196839243174,-0.00746619515121,0.00187263870612,1.21846967915e-07,0.0,0.0,0.0,1.21846967915e-07,0.0,0.0,0.0,1.21846967915e-07,0.16671305,0.2941995,9.9047165,9e-08,0.0,0.0,0.0,9e-08,0.0,0.0,0.0,9e-08
1531943852568855314,758,1531943852568360823,base_link,0.0421152319878,-0.0636109188803,-0.71123682876,0.698800494883,1.0,0.0,0.0,0.0,1.0,0.0,0.0,0.0,1.0,0.324743658304,-0.00475091673434,0.00472657289356,1.21846967915e-07,0.0,0.0,0.0,1.21846967915e-07,0.0,0.0,0.0,1.21846967915e-07,0.42168595,0.0588399,9.24767095,9e-08,0.0,0.0,0.0,9e-08,0.0,0.0,0.0,9e-08
1531943853074937775,759,1531943853074341430,base_link,0.0956253815412,-0.109795957806,-0.711483973684,0.687452681459,1.0,0.0,0.0,0.0,1.0,0.0,0.0,0.0,1.0,0.178793951869,0.0292199403048,-0.163549438119,1.21846967915e-07,0.0,0.0,0.0,1.21846967915e-07,0.0,0.0,0.0,1.21846967915e-07,0.2549729,0.63743225,8.28661925,9e-08,0.0,0.0,0.0,9e-08,0.0,0.0,0.0,9e-08
1531943853346403833,760,1531943853346105789,base_link,0.136779072252,-0.138454474818,-0.728043749402,0.65732346889,1.0,0.0,0.0,0.0,1.0,0.0,0.0,0.0,1.0,0.424295514822,0.0373735576868,-0.273217082024,1.21846967915e-07,0.0,0.0,0.0,1.21846967915e-07,0.0,0.0,0.0,1.21846967915e-07,0.1176798,0.2941995,7.7864801,9e-08,0.0,0.0,0.0,9e-08,0.0,0.0,0.0,9e-08
1531943853702961244,761,1531943853702661024,base_link,0.175628764711,-0.197921582101,-0.743041861924,0.614711620008,1.0,0.0,0.0,0.0,1.0,0.0,0.0,0.0,1.0,0.303713738918,-0.194115757942,-0.176839306951,1.21846967915e-07,0.0,0.0,0.0,1.21846967915e-07,0.0,0.0,0.0,1.21846967915e-07,0.81395195,0.00980665,10.3165958,9e-08,0.0,0.0,0.0,9e-08,0.0,0.0,0.0,9e-08
1531943854062133953,762,1531943854061829829,base_link,0.181094374663,-0.23443946065,-0.762045498869,0.575786092581,1.0,0.0,0.0,0.0,1.0,0.0,0.0,0.0,1.0,0.14726382494,-0.183602467179,-0.267169713974,1.21846967915e-07,0.0,0.0,0.0,1.21846967915e-07,0.0,0.0,0.0,1.21846967915e-07,0.93163175,0.38245935,11.03248125,9e-08,0.0,0.0,0.0,9e-08,0.0,0.0,0.0,9e-08
1531943854450774036,763,1531943854442087769,base_link,0.183136395283,-0.274650139195,-0.792111744876,0.513407582134,1.0,0.0,0.0,0.0,1.0,0.0,0.0,0.0,1.0,0.159550398588,-0.267497062683,-0.329908043146,1.21846967915e-07,0.0,0.0,0.0,1.21846967915e-07,0.0,0.0,0.0,1.21846967915e-07,0.8629852,0.48052585,12.356379,9e-08,0.0,0.0,0.0,9e-08,0.0,0.0,0.0,9e-08
1531943854734173400,764,1531943854733365377,base_link,0.16450782088,-0.296837760876,-0.819491893147,0.461798178487,1.0,0.0,0.0,0.0,1.0,0.0,0.0,0.0,1.0,-0.0195862092078,-0.318328529596,-0.325873613358,1.21846967915e-07,0.0,0.0,0.0,1.21846967915e-07,0.0,0.0,0.0,1.21846967915e-07,0.38245935,0.61781895,13.0820711,9e-08,0.0,0.0,0.0,9e-08,0.0,0.0,0.0,9e-08
1531943855055202852,765,1531943855054762537,base_link,0.136876051728,-0.317612142932,-0.847836256363,0.401946707316,1.0,0.0,0.0,0.0,1.0,0.0,0.0,0.0,1.0,0.121168211102,-0.345692098141,-0.316997349262,1.21846967915e-07,0.0,0.0,0.0,1.21846967915e-07,0.0,0.0,0.0,1.21846967915e-07,0.32361945,0.55897905,13.3566573,9e-08,0.0,0.0,0.0,9e-08,0.0,0.0,0.0,9e-08
1531943855372861789,766,1531943855372623200,base_link,0.107543797717,-0.342789670742,-0.869283684641,0.339522383389,1.0,0.0,0.0,0.0,1.0,0.0,0.0,0.0,1.0,-0.0241252630949,-0.364652454853,-0.29868260026,1.21846967915e-07,0.0,0.0,0.0,1.21846967915e-07,0.0,0.0,0.0,1.21846967915e-07,0.6080123,0.46091255,14.77862155,9e-08,0.0,0.0,0.0,9e-08,0.0,0.0,0.0,9e-08
1531943855619920720,767,1531943855619664243,base_link,0.0845029231856,-0.349886211341,-0.886182499122,0.291752417877,1.0,0.0,0.0,0.0,1.0,0.0,0.0,0.0,1.0,-0.055068615824,-0.339069902897,-0.330277442932,1.21846967915e-07,0.0,0.0,0.0,1.21846967915e-07,0.0,0.0,0.0,1.21846967915e-07,0.40207265,0.5295591,13.7489233,9e-08,0.0,0.0,0.0,9e-08,0.0,0.0,0.0,9e-08
1531943855975852585,768,1531943855975537740,base_link,0.0533022195525,-0.353422174508,-0.909058835061,0.214158059281,1.0,0.0,0.0,0.0,1.0,0.0,0.0,0.0,1.0,-0.0665474161506,-0.328445762396,-0.340205967426,1.21846967915e-07,0.0,0.0,0.0,1.21846967915e-07,0.0,0.0,0.0,1.21846967915e-07,0.08825985,0.42168595,12.71922505,9e-08,0.0,0.0,0.0,9e-08,0.0,0.0,0.0,9e-08
1531943856422622177,769,1531943856422255526,base_link,0.00677412518526,-0.336287664045,-0.932821227093,0.129264366797,1.0,0.0,0.0,0.0,1.0,0.0,0.0,0.0,1.0,-0.232214823365,-0.286417782307,-0.26522859931,1.21846967915e-07,0.0,0.0,0.0,1.21846967915e-07,0.0,0.0,0.0,1.21846967915e-07,0.12748645,0.67665885,12.22889255,9e-08,0.0,0.0,0.0,9e-08,0.0,0.0,0.0,9e-08
1531943856983557892,770,1531943856983075882,base_link,-0.0412121037984,-0.262828677585,-0.96376134311,0.019665255306,1.0,0.0,0.0,0.0,1.0,0.0,0.0,0.0,1.0,-0.492101401091,-0.236187785864,-0.264660149813,1.21846967915e-07,0.0,0.0,0.0,1.21846967915e-07,0.0,0.0,0.0,1.21846967915e-07,0.38245935,0.392266,12.552512,9e-08,0.0,0.0,0.0,9e-08,0.0,0.0,0.0,9e-08
1531943857441770241,771,1531943857440156628,base_link,-0.0728975341721,-0.149119732494,-0.985041375607,-0.0462897746189,1.0,0.0,0.0,0.0,1.0,0.0,0.0,0.0,1.0,-0.492924213409,-0.163409292698,-0.115597523749,1.21846967915e-07,0.0,0.0,0.0,1.21846967915e-07,0.0,0.0,0.0,1.21846967915e-07,0.51975245,0.2745862,11.8464332,9e-08,0.0,0.0,0.0,9e-08,0.0,0.0,0.0,9e-08
1531943857960930104,772,1531943857959969859,base_link,-0.077468322771,-0.0505185742453,-0.992455526937,-0.0804895004033,1.0,0.0,0.0,0.0,1.0,0.0,0.0,0.0,1.0,-0.309442907572,0.0349675416946,-0.111103072762,1.21846967915e-07,0.0,0.0,0.0,1.21846967915e-07,0.0,0.0,0.0,1.21846967915e-07,0.71588545,0.3334261,10.2185293,9e-08,0.0,0.0,0.0,9e-08,0.0,0.0,0.0,9e-08
1531943858321901002,773,1531943858314915643,base_link,-0.0631867617752,-0.00372643007731,-0.992339980128,-0.106089163892,1.0,0.0,0.0,0.0,1.0,0.0,0.0,0.0,1.0,-0.117636300623,0.0621245652437,-0.107034489512,1.21846967915e-07,0.0,0.0,0.0,1.21846967915e-07,0.0,0.0,0.0,1.21846967915e-07,0.588399,0.196133,9.4339973,9e-08,0.0,0.0,0.0,9e-08,0.0,0.0,0.0,9e-08
1531943858877824894,774,1531943858877449666,base_link,-0.0410172624326,0.0334458298258,-0.992628742223,-0.109028164996,1.0,0.0,0.0,0.0,1.0,0.0,0.0,0.0,1.0,-0.0911147966981,0.0647528171539,0.0867887064815,1.21846967915e-07,0.0,0.0,0.0,1.21846967915e-07,0.0,0.0,0.0,1.21846967915e-07,0.63743225,-0.1569064,7.50208725,9e-08,0.0,0.0,0.0,9e-08,0.0,0.0,0.0,9e-08
1531943859235485980,775,1531943859234976354,base_link,-0.0207997481973,0.0718575029504,-0.992615646211,-0.0954884738636,1.0,0.0,0.0,0.0,1.0,0.0,0.0,0.0,1.0,-0.3527084589,0.0951256901026,0.0632241815329,1.21846967915e-07,0.0,0.0,0.0,1.21846967915e-07,0.0,0.0,0.0,1.21846967915e-07,0.784532,0.16671305,7.8845466,9e-08,0.0,0.0,0.0,9e-08,0.0,0.0,0.0,9e-08
1531943859578393480,776,1531943859577995340,base_link,-0.00463550563367,0.0856285234897,-0.9928589393,-0.0829300591099,1.0,0.0,0.0,0.0,1.0,0.0,0.0,0.0,1.0,0.114887431264,0.0706244558096,0.12445449084,1.21846967915e-07,0.0,0.0,0.0,1.21846967915e-07,0.0,0.0,0.0,1.21846967915e-07,1.40235095,-0.20593965,8.99269805,9e-08,0.0,0.0,0.0,9e-08,0.0,0.0,0.0,9e-08
1531943860012846859,777,1531943860012573166,base_link,0.0156584658495,0.0547121701932,-0.997486985785,-0.0422031286736,1.0,0.0,0.0,0.0,1.0,0.0,0.0,0.0,1.0,0.245551973581,0.0879061967134,0.165666893125,1.21846967915e-07,0.0,0.0,0.0,1.21846967915e-07,0.0,0.0,0.0,1.21846967915e-07,1.26505785,0.2157463,7.10982125,9e-08,0.0,0.0,0.0,9e-08,0.0,0.0,0.0,9e-08
1531943860394679865,778,1531943860394193695,base_link,0.0301977343507,0.0501588405497,-0.997970967978,-0.0250226822586,1.0,0.0,0.0,0.0,1.0,0.0,0.0,0.0,1.0,-0.0434662513435,0.0680304244161,0.0221242755651,1.21846967915e-07,0.0,0.0,0.0,1.21846967915e-07,0.0,0.0,0.0,1.21846967915e-07,1.372931,0.50013915,7.40402075,9e-08,0.0,0.0,0.0,9e-08,0.0,0.0,0.0,9e-08
1531943860862465505,779,1531943860862081862,base_link,0.0306526316443,0.0589885776298,-0.99769860122,-0.0133515919308,1.0,0.0,0.0,0.0,1.0,0.0,0.0,0.0,1.0,-0.00225544720888,0.00461385305971,0.108203239739,1.21846967915e-07,0.0,0.0,0.0,1.21846967915e-07,0.0,0.0,0.0,1.21846967915e-07,1.75539035,0.1569064,10.24794925,9e-08,0.0,0.0,0.0,9e-08,0.0,0.0,0.0,9e-08
1531943861254198338,780,1531943861253890790,base_link,0.0233807550011,0.0372192497712,-0.999028627284,0.00314159344928,1.0,0.0,0.0,0.0,1.0,0.0,0.0,0.0,1.0,0.256785929203,-0.0878989249468,0.0462443418801,1.21846967915e-07,0.0,0.0,0.0,1.21846967915e-07,0.0,0.0,0.0,1.21846967915e-07,1.372931,0.38245935,10.1596894,9e-08,0.0,0.0,0.0,9e-08,0.0,0.0,0.0,9e-08
1531943861715386241,781,1531943861714714057,base_link,-0.0222211322494,-0.0101789988521,-0.999676047492,0.00709995307976,1.0,0.0,0.0,0.0,1.0,0.0,0.0,0.0,1.0,0.159238666296,-0.179001286626,-0.0502013079822,1.21846967915e-07,0.0,0.0,0.0,1.21846967915e-07,0.0,0.0,0.0,1.21846967915e-07,1.26505785,0.28439285,12.8663248,9e-08,0.0,0.0,0.0,9e-08,0.0,0.0,0.0,9e-08
1531943862113018755,782,1531943862112759430,base_link,-0.0446301299267,-0.0509782014076,-0.997693339345,0.00416834620092,1.0,0.0,0.0,0.0,1.0,0.0,0.0,0.0,1.0,0.157719999552,-0.0957498699427,-0.00363325374201,1.21846967915e-07,0.0,0.0,0.0,1.21846967915e-07,0.0,0.0,0.0,1.21846967915e-07,0.7256921,0.46091255,11.4345539,9e-08,0.0,0.0,0.0,9e-08,0.0,0.0,0.0,9e-08
1531943862490510867,783,1531943862490192215,base_link,-0.040312903006,-0.0682780365752,-0.996828291416,-0.00680712901134,1.0,0.0,0.0,0.0,1.0,0.0,0.0,0.0,1.0,0.04384322837,0.0695908293128,-0.124033346772,1.21846967915e-07,0.0,0.0,0.0,1.21846967915e-07,0.0,0.0,0.0,1.21846967915e-07,0.4314926,0.6276256,9.0613446,9e-08,0.0,0.0,0.0,9e-08,0.0,0.0,0.0,9e-08
1531943862980042611,784,1531943862974405268,base_link,-0.0466028042903,-0.0959486241977,-0.993632999619,-0.0362698527015,1.0,0.0,0.0,0.0,1.0,0.0,0.0,0.0,1.0,-0.0353221036494,-0.0221592430025,-0.0596505664289,1.21846967915e-07,0.0,0.0,0.0,1.21846967915e-07,0.0,0.0,0.0,1.21846967915e-07,1.0983448,0.0392266,9.71839015,9e-08,0.0,0.0,0.0,9e-08,0.0,0.0,0.0,9e-08
1531943863394688988,785,1531943863393407467,base_link,-0.0468541456785,-0.0696423695017,-0.995180615172,-0.0506968696182,1.0,0.0,0.0,0.0,1.0,0.0,0.0,0.0,1.0,-0.177291125059,0.0728277936578,-0.112540945411,1.21846967915e-07,0.0,0.0,0.0,1.21846967915e-07,0.0,0.0,0.0,1.21846967915e-07,1.2160246,0.4511059,10.05181625,9e-08,0.0,0.0,0.0,9e-08,0.0,0.0,0.0,9e-08
1531943863811864553,786,1531943863811380495,base_link,-0.0466029651004,-0.0480625958173,-0.994327949148,-0.0826442984766,1.0,0.0,0.0,0.0,1.0,0.0,0.0,0.0,1.0,-0.0661693364382,-0.0364395752549,-0.109341539443,1.21846967915e-07,0.0,0.0,0.0,1.21846967915e-07,0.0,0.0,0.0,1.21846967915e-07,0.77472535,0.2157463,10.9049948,9e-08,0.0,0.0,0.0,9e-08,0.0,0.0,0.0,9e-08
1531943864238581900,787,1531943864238111633,base_link,-0.0473253689252,-0.0189430722762,-0.99472705471,-0.0889918878165,1.0,0.0,0.0,0.0,1.0,0.0,0.0,0.0,1.0,-0.189965054393,-0.0297881942242,-0.020649317652,1.21846967915e-07,0.0,0.0,0.0,1.21846967915e-07,0.0,0.0,0.0,1.21846967915e-07,0.79433865,0.1372931,10.18910935,9e-08,0.0,0.0,0.0,9e-08,0.0,0.0,0.0,9e-08
1531943864682545451,788,1531943864680213030,base_link,-0.0379363075495,-0.0113924593189,-0.994593408036,-0.0959947974201,1.0,0.0,0.0,0.0,1.0,0.0,0.0,0.0,1.0,0.0406685359776,-0.0136642158031,-0.0179177559912,1.21846967915e-07,0.0,0.0,0.0,1.21846967915e-07,0.0,0.0,0.0,1.21846967915e-07,0.3138128,-0.20593965,9.54187045,9e-08,0.0,0.0,0.0,9e-08,0.0,0.0,0.0,9e-08
1531943865068746470,789,1531943865068276812,base_link,-0.030085386332,0.00281910762915,-0.996587664302,-0.0768111289036,1.0,0.0,0.0,0.0,1.0,0.0,0.0,0.0,1.0,-0.25352075696,0.0414716079831,0.122356787324,1.21846967915e-07,0.0,0.0,0.0,1.21846967915e-07,0.0,0.0,0.0,1.21846967915e-07,0.38245935,0.63743225,8.7475318,9e-08,0.0,0.0,0.0,9e-08,0.0,0.0,0.0,9e-08
1531943865397211616,790,1531943865396927427,base_link,-0.0147735612291,0.0350223418362,-0.996000167991,-0.080863111629,1.0,0.0,0.0,0.0,1.0,0.0,0.0,0.0,1.0,-0.096725679934,0.0476875603199,-0.103391669691,1.21846967915e-07,0.0,0.0,0.0,1.21846967915e-07,0.0,0.0,0.0,1.21846967915e-07,0.6080123,0.40207265,7.81590005,9e-08,0.0,0.0,0.0,9e-08,0.0,0.0,0.0,9e-08
1531943865871178094,791,1531943865870882386,base_link,-0.0164237892495,0.021461307747,-0.994929195822,-0.0968791345849,1.0,0.0,0.0,0.0,1.0,0.0,0.0,0.0,1.0,0.0965965613723,-0.0224840827286,0.0374787151814,1.21846967915e-07,0.0,0.0,0.0,1.21846967915e-07,0.0,0.0,0.0,1.21846967915e-07,0.7649187,-0.0784532,8.79656505,9e-08,0.0,0.0,0.0,9e-08,0.0,0.0,0.0,9e-08
1531943866278567648,792,1531943866278284804,base_link,-0.0257545034292,-0.00329826632337,-0.997339734821,-0.0681122627699,1.0,0.0,0.0,0.0,1.0,0.0,0.0,0.0,1.0,0.14051181078,-0.0298765283078,0.170246750116,1.21846967915e-07,0.0,0.0,0.0,1.21846967915e-07,0.0,0.0,0.0,1.21846967915e-07,1.10815145,0.0784532,10.7480884,9e-08,0.0,0.0,0.0,9e-08,0.0,0.0,0.0,9e-08
1531943866640998010,793,1531943866640198371,base_link,-0.026528597407,-0.00179640313107,-0.998135337958,-0.0549440949956,1.0,0.0,0.0,0.0,1.0,0.0,0.0,0.0,1.0,-0.099032253027,-0.0119782835245,-0.013374414295,1.21846967915e-07,0.0,0.0,0.0,1.21846967915e-07,0.0,0.0,0.0,1.21846967915e-07,0.8237586,0.42168595,10.1008495,9e-08,0.0,0.0,0.0,9e-08,0.0,0.0,0.0,9e-08
1531943867091329634,794,1531943867091077125,base_link,-0.0315723910382,0.00345879418192,-0.997764461684,-0.0587988083892,1.0,0.0,0.0,0.0,1.0,0.0,0.0,0.0,1.0,-0.00144612137228,-0.0171712934971,0.0256645381451,1.21846967915e-07,0.0,0.0,0.0,1.21846967915e-07,0.0,0.0,0.0,1.21846967915e-07,0.7649187,-0.0588399,10.2577559,9e-08,0.0,0.0,0.0,9e-08,0.0,0.0,0.0,9e-08
1531943867597324371,795,1531943867597049878,base_link,-0.0354323985875,0.0109484463837,-0.998682202593,-0.0354758351037,1.0,0.0,0.0,0.0,1.0,0.0,0.0,0.0,1.0,0.203706368804,0.0522104948759,0.0922546461225,1.21846967915e-07,0.0,0.0,0.0,1.21846967915e-07,0.0,0.0,0.0,1.21846967915e-07,0.71588545,0.51975245,9.1397978,9e-08,0.0,0.0,0.0,9e-08,0.0,0.0,0.0,9e-08
1531943868080205613,796,1531943868079939600,base_link,-0.0263681143207,0.00430816553848,-0.998782341002,-0.0414728532935,1.0,0.0,0.0,0.0,1.0,0.0,0.0,0.0,1.0,-0.071781411767,0.0585921257734,-0.0713693648577,1.21846967915e-07,0.0,0.0,0.0,1.21846967915e-07,0.0,0.0,0.0,1.21846967915e-07,0.6276256,0.4903325,10.07142955,9e-08,0.0,0.0,0.0,9e-08,0.0,0.0,0.0,9e-08
1531943868473353299,797,1531943868472968247,base_link,-0.0243668849095,-0.0226090034271,-0.997784868281,-0.0576232983496,1.0,0.0,0.0,0.0,1.0,0.0,0.0,0.0,1.0,0.157178863883,-0.025373371318,-0.0746457129717,1.21846967915e-07,0.0,0.0,0.0,1.21846967915e-07,0.0,0.0,0.0,1.21846967915e-07,0.6276256,0.38245935,11.18938765,9e-08,0.0,0.0,0.0,9e-08,0.0,0.0,0.0,9e-08
1531943868878273617,798,1531943868877923221,base_link,-0.0249418807664,-0.0481936543345,-0.996476807184,-0.0639472205067,1.0,0.0,0.0,0.0,1.0,0.0,0.0,0.0,1.0,0.132257699966,0.0151703283191,-0.0246859807521,1.21846967915e-07,0.0,0.0,0.0,1.21846967915e-07,0.0,0.0,0.0,1.21846967915e-07,0.26477955,0.36284605,10.38524235,9e-08,0.0,0.0,0.0,9e-08,0.0,0.0,0.0,9e-08
1531943869219258961,799,1531943869219006484,base_link,-0.0246834845194,-0.061210402488,-0.995495444846,-0.0680649065923,1.0,0.0,0.0,0.0,1.0,0.0,0.0,0.0,1.0,-0.0422664247453,-0.00289642438293,-0.0494305789471,1.21846967915e-07,0.0,0.0,0.0,1.21846967915e-07,0.0,0.0,0.0,1.21846967915e-07,0.1176798,0.14709975,9.30651085,9e-08,0.0,0.0,0.0,9e-08,0.0,0.0,0.0,9e-08
1531943869554687026,800,1531943869554245431,base_link,-0.0191887060208,-0.055011607836,-0.994737099292,-0.0842829748914,1.0,0.0,0.0,0.0,1.0,0.0,0.0,0.0,1.0,-0.0548412464559,0.0164195559919,-0.136937454343,1.21846967915e-07,0.0,0.0,0.0,1.21846967915e-07,0.0,0.0,0.0,1.21846967915e-07,0.0196133,0.2353596,9.5909037,9e-08,0.0,0.0,0.0,9e-08,0.0,0.0,0.0,9e-08
1531943869979137048,801,1531943869978837628,base_link,-0.00791917788566,-0.0619751274707,-0.990947786737,-0.118822784674,1.0,0.0,0.0,0.0,1.0,0.0,0.0,0.0,1.0,0.111858397722,0.0394081920385,-0.13339650631,1.21846967915e-07,0.0,0.0,0.0,1.21846967915e-07,0.0,0.0,0.0,1.21846967915e-07,0.0196133,-0.10787315,7.7472535,9e-08,0.0,0.0,0.0,9e-08,0.0,0.0,0.0,9e-08
1531943870386182573,802,1531943870385687987,base_link,0.00173129994243,-0.0612782165821,-0.991287052923,-0.116584567936,1.0,0.0,0.0,0.0,1.0,0.0,0.0,0.0,1.0,-0.138212621212,0.0538114532828,0.00233330158517,1.21846967915e-07,0.0,0.0,0.0,1.21846967915e-07,0.0,0.0,0.0,1.21846967915e-07,-0.1372931,0.46091255,7.3549875,9e-08,0.0,0.0,0.0,9e-08,0.0,0.0,0.0,9e-08
1531943870788109021,803,1531943870787798689,base_link,0.0191689904437,-0.0281860852871,-0.991046215508,-0.129094899702,1.0,0.0,0.0,0.0,1.0,0.0,0.0,0.0,1.0,-0.12992683053,0.0331013128161,-0.0654796883464,1.21846967915e-07,0.0,0.0,0.0,1.21846967915e-07,0.0,0.0,0.0,1.21846967915e-07,0.0980665,0.10787315,8.60043205,9e-08,0.0,0.0,0.0,9e-08,0.0,0.0,0.0,9e-08
1531943871290408695,804,1531943871289925885,base_link,0.0177402097848,-0.00534637077213,-0.991100033504,-0.131823460979,1.0,0.0,0.0,0.0,1.0,0.0,0.0,0.0,1.0,0.00106678064913,-0.0629559606314,0.0460264794528,1.21846967915e-07,0.0,0.0,0.0,1.21846967915e-07,0.0,0.0,0.0,1.21846967915e-07,0.32361945,0.1569064,11.32668075,9e-08,0.0,0.0,0.0,9e-08,0.0,0.0,0.0,9e-08
1531943871730367517,805,1531943871729772484,base_link,0.0104615015902,0.019100585244,-0.992274341323,-0.122136629152,1.0,0.0,0.0,0.0,1.0,0.0,0.0,0.0,1.0,-0.143586829305,-0.0198199655861,0.0121887587011,1.21846967915e-07,0.0,0.0,0.0,1.21846967915e-07,0.0,0.0,0.0,1.21846967915e-07,0.1569064,-0.1176798,11.30706745,9e-08,0.0,0.0,0.0,9e-08,0.0,0.0,0.0,9e-08
1531943872071635177,806,1531943872071025776,base_link,0.00585855934196,0.0249645315917,-0.993870326355,-0.107537081217,1.0,0.0,0.0,0.0,1.0,0.0,0.0,0.0,1.0,-0.0746605619788,-0.0570249147713,0.116992980242,1.21846967915e-07,0.0,0.0,0.0,1.21846967915e-07,0.0,0.0,0.0,1.21846967915e-07,-0.30400615,0.10787315,9.75761675,9e-08,0.0,0.0,0.0,9e-08,0.0,0.0,0.0,9e-08
1531943872475208597,807,1531943872474480574,base_link,-0.00157803348997,0.044960529077,-0.994924840525,-0.090003457393,1.0,0.0,0.0,0.0,1.0,0.0,0.0,0.0,1.0,0.0434380024672,-0.0335157513618,0.0755486786366,1.21846967915e-07,0.0,0.0,0.0,1.21846967915e-07,0.0,0.0,0.0,1.21846967915e-07,-0.02941995,0.02941995,11.6895268,9e-08,0.0,0.0,0.0,9e-08,0.0,0.0,0.0,9e-08
1531943872884588831,808,1531943872884021638,base_link,-0.00566936887168,0.0403540602803,-0.997075963276,-0.0646446558767,1.0,0.0,0.0,0.0,1.0,0.0,0.0,0.0,1.0,0.102759502828,-0.0292628947645,0.156850844622,1.21846967915e-07,0.0,0.0,0.0,1.21846967915e-07,0.0,0.0,0.0,1.21846967915e-07,0.0392266,0.24516625,10.2969825,9e-08,0.0,0.0,0.0,9e-08,0.0,0.0,0.0,9e-08
1531943873215895909,809,1531943873210717696,base_link,-0.00660215873637,0.00964736191471,-0.998798416658,-0.0475926758031,1.0,0.0,0.0,0.0,1.0,0.0,0.0,0.0,1.0,0.149257585406,0.0413415394723,0.0723425149918,1.21846967915e-07,0.0,0.0,0.0,1.21846967915e-07,0.0,0.0,0.0,1.21846967915e-07,-0.2157463,0.06864655,8.79656505,9e-08,0.0,0.0,0.0,9e-08,0.0,0.0,0.0,9e-08
1531943873614632942,810,1531943873611494770,base_link,0.00364500632679,0.0100173442228,-0.998799788887,-0.0478053183635,1.0,0.0,0.0,0.0,1.0,0.0,0.0,0.0,1.0,-0.0418063476682,0.0604985058308,-0.0380214191973,1.21846967915e-07,0.0,0.0,0.0,1.21846967915e-07,0.0,0.0,0.0,1.21846967915e-07,-0.04903325,1.14692468189e-15,9.36535075,9e-08,0.0,0.0,0.0,9e-08,0.0,0.0,0.0,9e-08
1531943874008112691,811,1531943874003953794,base_link,0.0150249214703,-0.0244228060635,-0.998126645115,-0.0540460784072,1.0,0.0,0.0,0.0,1.0,0.0,0.0,0.0,1.0,0.368734389544,0.0868921205401,0.00329395243898,1.21846967915e-07,0.0,0.0,0.0,1.21846967915e-07,0.0,0.0,0.0,1.21846967915e-07,0.1765197,0.0392266,6.0605097,9e-08,0.0,0.0,0.0,9e-08,0.0,0.0,0.0,9e-08
1531943874603548970,812,1531943874603170510,base_link,0.0302169050606,-0.0552994746458,-0.996407758772,-0.0565728292716,1.0,0.0,0.0,0.0,1.0,0.0,0.0,0.0,1.0,-0.00982607714832,0.0195917114615,-0.0886302962899,1.21846967915e-07,0.0,0.0,0.0,1.21846967915e-07,0.0,0.0,0.0,1.21846967915e-07,0.40207265,0.3334261,8.2179727,9e-08,0.0,0.0,0.0,9e-08,0.0,0.0,0.0,9e-08
1531943875035173478,813,1531943875034824554,base_link,0.0338985215548,-0.0531959494665,-0.995235410939,-0.0743475487777,1.0,0.0,0.0,0.0,1.0,0.0,0.0,0.0,1.0,0.112511746585,0.026257622987,-0.10907369107,1.21846967915e-07,0.0,0.0,0.0,1.21846967915e-07,0.0,0.0,0.0,1.21846967915e-07,0.4118793,0.00980665,9.14960445,9e-08,0.0,0.0,0.0,9e-08,0.0,0.0,0.0,9e-08
1531943875485188087,814,1531943875484636317,base_link,0.0254290105238,-0.105573541276,-0.98942567132,-0.0961479783438,1.0,0.0,0.0,0.0,1.0,0.0,0.0,0.0,1.0,0.154681250453,-0.0577330589294,-0.120940178633,1.21846967915e-07,0.0,0.0,0.0,1.21846967915e-07,0.0,0.0,0.0,1.21846967915e-07,0.2745862,0.6080123,10.7088618,9e-08,0.0,0.0,0.0,9e-08,0.0,0.0,0.0,9e-08
1531943875921927102,815,1531943875920239889,base_link,0.0117713341983,-0.127655598593,-0.983302322143,-0.129158921901,1.0,0.0,0.0,0.0,1.0,0.0,0.0,0.0,1.0,0.0711934641004,-0.0980681329966,-0.183879733086,1.21846967915e-07,0.0,0.0,0.0,1.21846967915e-07,0.0,0.0,0.0,1.21846967915e-07,0.20593965,0.69627215,9.75761675,9e-08,0.0,0.0,0.0,9e-08,0.0,0.0,0.0,9e-08
1531943876425795412,816,1531943876420118420,base_link,-0.0268385141093,-0.193238506186,-0.962319080929,-0.18942164704,1.0,0.0,0.0,0.0,1.0,0.0,0.0,0.0,1.0,0.205218657851,-0.192657291889,-0.131744638085,1.21846967915e-07,0.0,0.0,0.0,1.21846967915e-07,0.0,0.0,0.0,1.21846967915e-07,0.2549729,0.1765197,12.8859381,9e-08,0.0,0.0,0.0,9e-08,0.0,0.0,0.0,9e-08
1531943876818725972,817,1531943876817882941,base_link,-0.0608664910477,-0.189767884932,-0.956654904529,-0.212355394931,1.0,0.0,0.0,0.0,1.0,0.0,0.0,0.0,1.0,-0.0297743827105,-0.195573583245,-0.0181918628514,1.21846967915e-07,0.0,0.0,0.0,1.21846967915e-07,0.0,0.0,0.0,1.21846967915e-07,0.02941995,0.2157463,12.62115855,9e-08,0.0,0.0,0.0,9e-08,0.0,0.0,0.0,9e-08
1531943877248089467,818,1531943877247250021,base_link,-0.0796290859124,-0.195424978469,-0.947242677151,-0.241245926496,1.0,0.0,0.0,0.0,1.0,0.0,0.0,0.0,1.0,0.203583046794,-0.0458588302135,-0.270236492157,1.21846967915e-07,0.0,0.0,0.0,1.21846967915e-07,0.0,0.0,0.0,1.21846967915e-07,0.22555295,0.65704555,10.69905515,9e-08,0.0,0.0,0.0,9e-08,0.0,0.0,0.0,9e-08
1531943877586466123,819,1531943877586030928,base_link,-0.083628977579,-0.213069820014,-0.930928931246,-0.284567691204,1.0,0.0,0.0,0.0,1.0,0.0,0.0,0.0,1.0,0.140081092715,-0.064028725028,-0.269360244274,1.21846967915e-07,0.0,0.0,0.0,1.21846967915e-07,0.0,0.0,0.0,1.21846967915e-07,0.1176798,0.4707192,10.1596894,9e-08,0.0,0.0,0.0,9e-08,0.0,0.0,0.0,9e-08
1531943878090443020,820,1531943878090148847,base_link,-0.0833027355038,-0.250038234322,-0.896136888219,-0.357043713302,1.0,0.0,0.0,0.0,1.0,0.0,0.0,0.0,1.0,-0.0756938681006,-0.0369157344103,-0.488125175238,1.21846967915e-07,0.0,0.0,0.0,1.21846967915e-07,0.0,0.0,0.0,1.21846967915e-07,0.24516625,0.87279185,7.1196279,9e-08,0.0,0.0,0.0,9e-08,0.0,0.0,0.0,9e-08
1531943878627618780,821,1531943878621909405,base_link,-0.0948799345581,-0.247115393912,-0.845093030229,-0.464488482493,1.0,0.0,0.0,0.0,1.0,0.0,0.0,0.0,1.0,0.220601513982,-0.242763713002,-0.22601480782,1.21846967915e-07,0.0,0.0,0.0,1.21846967915e-07,0.0,0.0,0.0,1.21846967915e-07,0.5099458,0.04903325,11.0422879,9e-08,0.0,0.0,0.0,9e-08,0.0,0.0,0.0,9e-08
1531943878936210337,822,1531943878935771174,base_link,-0.127727468377,-0.229585101552,-0.831752931226,-0.489043389041,1.0,0.0,0.0,0.0,1.0,0.0,0.0,0.0,1.0,-0.156500265002,-0.279486656189,-0.0841631293297,1.21846967915e-07,0.0,0.0,0.0,1.21846967915e-07,0.0,0.0,0.0,1.21846967915e-07,0.77472535,0.5491724,13.77834325,9e-08,0.0,0.0,0.0,9e-08,0.0,0.0,0.0,9e-08
1531943879273685957,823,1531943879273484167,base_link,-0.140809620351,-0.193842493365,-0.817285399816,-0.524063272736,1.0,0.0,0.0,0.0,1.0,0.0,0.0,0.0,1.0,-0.147400096059,-0.158237963915,-0.25008508563,1.21846967915e-07,0.0,0.0,0.0,1.21846967915e-07,0.0,0.0,0.0,1.21846967915e-07,0.38245935,0.8825985,11.36590735,9e-08,0.0,0.0,0.0,9e-08,0.0,0.0,0.0,9e-08
1531943879595154014,824,1531943879594748355,base_link,-0.131083511193,-0.161532244013,-0.790938681268,-0.575448042583,1.0,0.0,0.0,0.0,1.0,0.0,0.0,0.0,1.0,-0.161448478699,-0.0946026593447,-0.340199679136,1.21846967915e-07,0.0,0.0,0.0,1.21846967915e-07,0.0,0.0,0.0,1.21846967915e-07,0.5295591,0.1372931,10.8853815,9e-08,0.0,0.0,0.0,9e-08,0.0,0.0,0.0,9e-08
1531943879997503784,825,1531943879996583442,base_link,-0.12587968233,-0.147406607724,-0.758167341863,-0.622581624615,1.0,0.0,0.0,0.0,1.0,0.0,0.0,0.0,1.0,-0.0179164521396,-0.093847848475,-0.303760111332,1.21846967915e-07,0.0,0.0,0.0,1.21846967915e-07,0.0,0.0,0.0,1.21846967915e-07,0.0392266,0.38245935,8.2964259,9e-08,0.0,0.0,0.0,9e-08,0.0,0.0,0.0,9e-08
1531943880373545600,826,1531943880372876615,base_link,-0.162424035618,-0.163634522182,-0.715467968975,-0.659505694573,1.0,0.0,0.0,0.0,1.0,0.0,0.0,0.0,1.0,0.128061115742,-0.166001886129,-0.12777581811,1.21846967915e-07,0.0,0.0,0.0,1.21846967915e-07,0.0,0.0,0.0,1.21846967915e-07,0.9218251,-0.0980665,12.71922505,9e-08,0.0,0.0,0.0,9e-08,0.0,0.0,0.0,9e-08
1531943880814602716,827,1531943880814150049,base_link,-0.16599425452,-0.10822079479,-0.705790855307,-0.680142217191,1.0,0.0,0.0,0.0,1.0,0.0,0.0,0.0,1.0,-0.493120700121,-0.0862867385149,-0.0872538089752,1.21846967915e-07,0.0,0.0,0.0,1.21846967915e-07,0.0,0.0,0.0,1.21846967915e-07,1.28467115,0.63743225,15.03359445,9e-08,0.0,0.0,0.0,9e-08,0.0,0.0,0.0,9e-08
1531943881293323317,828,1531943881291080110,base_link,-0.0977429780742,-0.0552618177952,-0.689464187824,-0.715563816469,1.0,0.0,0.0,0.0,1.0,0.0,0.0,0.0,1.0,-0.314631104469,0.0800065994263,-0.238725736737,1.21846967915e-07,0.0,0.0,0.0,1.21846967915e-07,0.0,0.0,0.0,1.21846967915e-07,0.1765197,0.24516625,8.4141057,9e-08,0.0,0.0,0.0,9e-08,0.0,0.0,0.0,9e-08
1531943881637682550,829,1531943881634477338,base_link,-0.0504759914954,-0.041329546783,-0.66280522099,-0.745944556836,1.0,0.0,0.0,0.0,1.0,0.0,0.0,0.0,1.0,-0.333500891924,0.111698150635,-0.224216803908,1.21846967915e-07,0.0,0.0,0.0,1.21846967915e-07,0.0,0.0,0.0,1.21846967915e-07,0.4903325,0.44129925,8.8063717,9e-08,0.0,0.0,0.0,9e-08,0.0,0.0,0.0,9e-08
1531943881991793130,830,1531943881991469230,base_link,-0.0182306890482,-0.0364258876683,-0.644552792322,-0.763473964582,1.0,0.0,0.0,0.0,1.0,0.0,0.0,0.0,1.0,-0.0482381470501,0.0770262256265,-0.0420662686229,1.21846967915e-07,0.0,0.0,0.0,1.21846967915e-07,0.0,0.0,0.0,1.21846967915e-07,0.6276256,-0.1765197,6.4331624,9e-08,0.0,0.0,0.0,9e-08,0.0,0.0,0.0,9e-08
1531943882333363090,831,1531943882332781304,base_link,0.00574604136849,-0.0280569930906,-0.645051587455,-0.763602146192,1.0,0.0,0.0,0.0,1.0,0.0,0.0,0.0,1.0,-0.236808672547,0.0555389598012,-0.0125713478774,1.21846967915e-07,0.0,0.0,0.0,1.21846967915e-07,0.0,0.0,0.0,1.21846967915e-07,0.6472389,0.4118793,9.610517,9e-08,0.0,0.0,0.0,9e-08,0.0,0.0,0.0,9e-08
1531943882786412054,832,1531943882783259001,base_link,0.040722931055,-0.0101968791114,-0.654600009609,-0.754808912217,1.0,0.0,0.0,0.0,1.0,0.0,0.0,0.0,1.0,-0.0519062466919,0.0164939183742,0.103806100786,1.21846967915e-07,0.0,0.0,0.0,1.21846967915e-07,0.0,0.0,0.0,1.21846967915e-07,0.71588545,-0.0196133,9.01231135,9e-08,0.0,0.0,0.0,9e-08,0.0,0.0,0.0,9e-08
1531943883109878058,833,1531943883109002932,base_link,0.0688198490408,0.016163305182,-0.671533889358,-0.737593933942,1.0,0.0,0.0,0.0,1.0,0.0,0.0,0.0,1.0,-0.180073663592,0.00751747190952,0.032213293016,1.21846967915e-07,0.0,0.0,0.0,1.21846967915e-07,0.0,0.0,0.0,1.21846967915e-07,0.6864655,0.2353596,9.0809579,9e-08,0.0,0.0,0.0,9e-08,0.0,0.0,0.0,9e-08
1531943883598872419,834,1531943883598455751,base_link,0.0239119152371,-0.00873767590206,-0.675230493563,-0.737167317434,1.0,0.0,0.0,0.0,1.0,0.0,0.0,0.0,1.0,0.19750341773,-0.0662468075752,0.0640303269029,1.21846967915e-07,0.0,0.0,0.0,1.21846967915e-07,0.0,0.0,0.0,1.21846967915e-07,0.83356525,-0.18632635,10.34601575,9e-08,0.0,0.0,0.0,9e-08,0.0,0.0,0.0,9e-08
1531943883898790658,835,1531943883898039882,base_link,0.0299037633166,0.0096962129266,-0.68868781488,-0.724376174394,1.0,0.0,0.0,0.0,1.0,0.0,0.0,0.0,1.0,-0.382839560509,-0.0551804900169,0.157098501921,1.21846967915e-07,0.0,0.0,0.0,1.21846967915e-07,0.0,0.0,0.0,1.21846967915e-07,0.65704555,0.4903325,11.81701325,9e-08,0.0,0.0,0.0,9e-08,0.0,0.0,0.0,9e-08
1531943884264357189,836,1531943884263985577,base_link,0.063127472285,0.0469966970794,-0.692404041466,-0.717204905217,1.0,0.0,0.0,0.0,1.0,0.0,0.0,0.0,1.0,0.010715666227,-0.00867925398052,-0.0336024574935,1.21846967915e-07,0.0,0.0,0.0,1.21846967915e-07,0.0,0.0,0.0,1.21846967915e-07,0.50013915,1.34148153892e-15,10.95402805,9e-08,0.0,0.0,0.0,9e-08,0.0,0.0,0.0,9e-08
1531943884603807407,837,1531943884600051993,base_link,0.0131512917513,0.0112408582762,-0.698635105402,-0.715268953702,1.0,0.0,0.0,0.0,1.0,0.0,0.0,0.0,1.0,0.405670672655,-0.0296390205622,0.048967987299,1.21846967915e-07,0.0,0.0,0.0,1.21846967915e-07,0.0,0.0,0.0,1.21846967915e-07,0.3138128,0.34323275,11.34629405,9e-08,0.0,0.0,0.0,9e-08,0.0,0.0,0.0,9e-08
1531943884970608998,838,1531943884970335017,base_link,-0.0204617223427,-0.0145854665288,-0.70085385047,-0.712862162249,1.0,0.0,0.0,0.0,1.0,0.0,0.0,0.0,1.0,0.0647524520755,0.00856178626418,-0.0449879430234,1.21846967915e-07,0.0,0.0,0.0,1.21846967915e-07,0.0,0.0,0.0,1.21846967915e-07,0.392266,0.2157463,8.85540495,9e-08,0.0,0.0,0.0,9e-08,0.0,0.0,0.0,9e-08
1531943885408272363,839,1531943885407949711,base_link,-0.0426558006993,-0.0387822083623,-0.693860222314,-0.717798310719,1.0,0.0,0.0,0.0,1.0,0.0,0.0,0.0,1.0,0.12006046623,0.0220489501953,-0.0347884036601,1.21846967915e-07,0.0,0.0,0.0,1.21846967915e-07,0.0,0.0,0.0,1.21846967915e-07,0.1765197,0.08825985,8.11009955,9e-08,0.0,0.0,0.0,9e-08,0.0,0.0,0.0,9e-08
1531943885849886278,840,1531943885849544937,base_link,-0.0431958542686,-0.0513737941079,-0.684163609029,-0.726233438732,1.0,0.0,0.0,0.0,1.0,0.0,0.0,0.0,1.0,-0.0164062455297,0.0408995784819,-0.101586356759,1.21846967915e-07,0.0,0.0,0.0,1.21846967915e-07,0.0,0.0,0.0,1.21846967915e-07,0.20593965,0.2941995,8.5710121,9e-08,0.0,0.0,0.0,9e-08,0.0,0.0,0.0,9e-08
1531943886174831962,841,1531943886174046307,base_link,-0.0421407325833,-0.0593130972761,-0.67291759752,-0.736130438235,1.0,0.0,0.0,0.0,1.0,0.0,0.0,0.0,1.0,0.045570012182,0.018033856526,-0.0830789655447,1.21846967915e-07,0.0,0.0,0.0,1.21846967915e-07,0.0,0.0,0.0,1.21846967915e-07,0.26477955,-0.06864655,8.24739265,9e-08,0.0,0.0,0.0,9e-08,0.0,0.0,0.0,9e-08
1531943886632662854,842,1531943886631386420,base_link,-0.0557191615694,-0.0748957934925,-0.669041229915,-0.737339696358,1.0,0.0,0.0,0.0,1.0,0.0,0.0,0.0,1.0,0.132717013359,-0.0154772810638,0.0130768287927,1.21846967915e-07,0.0,0.0,0.0,1.21846967915e-07,0.0,0.0,0.0,1.21846967915e-07,0.3726527,0.18632635,10.5127288,9e-08,0.0,0.0,0.0,9e-08,0.0,0.0,0.0,9e-08
1531943887124151580,843,1531943887123683297,base_link,-0.0168117693244,-0.038412038999,-0.670685183252,-0.740556050977,1.0,0.0,0.0,0.0,1.0,0.0,0.0,0.0,1.0,-0.425816684961,0.00580746866763,-0.0465430915356,1.21846967915e-07,0.0,0.0,0.0,1.21846967915e-07,0.0,0.0,0.0,1.21846967915e-07,0.24516625,0.10787315,9.87529655,9e-08,0.0,0.0,0.0,9e-08,0.0,0.0,0.0,9e-08
1531943887558006394,844,1531943887557629182,base_link,0.0356131910479,0.00426642842707,-0.665223909706,-0.745781903888,1.0,0.0,0.0,0.0,1.0,0.0,0.0,0.0,1.0,-0.108331307769,0.0119051020592,0.0162464939058,1.21846967915e-07,0.0,0.0,0.0,1.21846967915e-07,0.0,0.0,0.0,1.21846967915e-07,-0.1765197,-0.1176798,9.4732239,9e-08,0.0,0.0,0.0,9e-08,0.0,0.0,0.0,9e-08
1531943887959131556,845,1531943887958794088,base_link,0.0542560970585,0.018478994155,-0.678056228183,-0.732771829514,1.0,0.0,0.0,0.0,1.0,0.0,0.0,0.0,1.0,-0.220880284905,0.0118856579065,0.0108112450689,1.21846967915e-07,0.0,0.0,0.0,1.21846967915e-07,0.0,0.0,0.0,1.21846967915e-07,0.0196133,0.588399,8.5513988,9e-08,0.0,0.0,0.0,9e-08,0.0,0.0,0.0,9e-08
1531943888491762077,846,1531943888491460160,base_link,0.0611927832221,0.0261029836642,-0.672330450688,-0.737255615511,1.0,0.0,0.0,0.0,1.0,0.0,0.0,0.0,1.0,0.231742918491,-0.00928204134107,0.150977090001,1.21846967915e-07,0.0,0.0,0.0,1.21846967915e-07,0.0,0.0,0.0,1.21846967915e-07,0.24516625,-0.34323275,9.14960445,9e-08,0.0,0.0,0.0,9e-08,0.0,0.0,0.0,9e-08
1531943888792486154,847,1531943888792291308,base_link,0.0474562321955,0.0209613840145,-0.694883143857,-0.717248870888,1.0,0.0,0.0,0.0,1.0,0.0,0.0,0.0,1.0,0.0822712630033,-0.0431006662548,0.14011503756,1.21846967915e-07,0.0,0.0,0.0,1.21846967915e-07,0.0,0.0,0.0,1.21846967915e-07,0.20593965,0.1765197,9.67916355,9e-08,0.0,0.0,0.0,9e-08,0.0,0.0,0.0,9e-08
1531943889157691725,848,1531943889157384112,base_link,0.0314341423953,0.0179875555998,-0.704793161098,-0.708487785784,1.0,0.0,0.0,0.0,1.0,0.0,0.0,0.0,1.0,0.122804306448,-0.0394492596388,0.00677966699004,1.21846967915e-07,0.0,0.0,0.0,1.21846967915e-07,0.0,0.0,0.0,1.21846967915e-07,0.3530394,0.36284605,10.48330885,9e-08,0.0,0.0,0.0,9e-08,0.0,0.0,0.0,9e-08
1531943889617252890,849,1531943889616802047,base_link,0.00547077770228,0.00727677407669,-0.700167152426,-0.71392091846,1.0,0.0,0.0,0.0,1.0,0.0,0.0,0.0,1.0,0.312836498022,-0.00886625237763,-0.0771014615893,1.21846967915e-07,0.0,0.0,0.0,1.21846967915e-07,0.0,0.0,0.0,1.21846967915e-07,0.1765197,-0.0588399,10.3362091,9e-08,0.0,0.0,0.0,9e-08,0.0,0.0,0.0,9e-08
1531943890080613790,850,1531943890080213667,base_link,-0.0575572318444,-0.0480776580352,-0.698240624591,-0.711923966467,1.0,0.0,0.0,0.0,1.0,0.0,0.0,0.0,1.0,0.188589453697,-0.0165441296995,0.0142279453576,1.21846967915e-07,0.0,0.0,0.0,1.21846967915e-07,0.0,0.0,0.0,1.21846967915e-07,-0.0196133,0.588399,10.44408225,9e-08,0.0,0.0,0.0,9e-08,0.0,0.0,0.0,9e-08
1531943890441896502,851,1531943890441657561,base_link,-0.059571272121,-0.0501203230779,-0.688435591374,-0.72110724118,1.0,0.0,0.0,0.0,1.0,0.0,0.0,0.0,1.0,0.0582477673888,0.0343139246106,-0.146522074938,1.21846967915e-07,0.0,0.0,0.0,1.21846967915e-07,0.0,0.0,0.0,1.21846967915e-07,0.1569064,0.30400615,10.36562905,9e-08,0.0,0.0,0.0,9e-08,0.0,0.0,0.0,9e-08
1531943890899572961,852,1531943890899032647,base_link,-0.0772407480375,-0.0753469532511,-0.664450742093,-0.739501125632,1.0,0.0,0.0,0.0,1.0,0.0,0.0,0.0,1.0,0.0362304225564,0.0112574873492,-0.122665748,1.21846967915e-07,0.0,0.0,0.0,1.21846967915e-07,0.0,0.0,0.0,1.21846967915e-07,0.16671305,0.5099458,10.1793027,9e-08,0.0,0.0,0.0,9e-08,0.0,0.0,0.0,9e-08
1531943891338173732,853,1531943891337785096,base_link,-0.095631371625,-0.0981428833642,-0.638347674928,-0.757452877161,1.0,0.0,0.0,0.0,1.0,0.0,0.0,0.0,1.0,0.109934933484,0.0170898642391,-0.0865863189101,1.21846967915e-07,0.0,0.0,0.0,1.21846967915e-07,0.0,0.0,0.0,1.21846967915e-07,-0.1176798,-0.24516625,9.69877685,9e-08,0.0,0.0,0.0,9e-08,0.0,0.0,0.0,9e-08
1531943891672054065,854,1531943891671813619,base_link,-0.0980779137371,-0.0953786685302,-0.630432388999,-0.764093342025,1.0,0.0,0.0,0.0,1.0,0.0,0.0,0.0,1.0,-0.132321149111,0.019782897085,-0.103528104722,1.21846967915e-07,0.0,0.0,0.0,1.21846967915e-07,0.0,0.0,0.0,1.21846967915e-07,0.14709975,0.18632635,11.38552065,9e-08,0.0,0.0,0.0,9e-08,0.0,0.0,0.0,9e-08
1531943892137363215,855,1531943892137056115,base_link,-0.100914977797,-0.095099593337,-0.620890211773,-0.771535857578,1.0,0.0,0.0,0.0,1.0,0.0,0.0,0.0,1.0,0.126395791769,-0.0102049596608,-0.0505080223083,1.21846967915e-07,0.0,0.0,0.0,1.21846967915e-07,0.0,0.0,0.0,1.21846967915e-07,0.28439285,0.1765197,9.7281968,9e-08,0.0,0.0,0.0,9e-08,0.0,0.0,0.0,9e-08
1531943892421847268,856,1531943892421379241,base_link,-0.130941647145,-0.116047809802,-0.607729766989,-0.774630054412,1.0,0.0,0.0,0.0,1.0,0.0,0.0,0.0,1.0,0.399617731571,-0.0487425401807,-0.107734128833,1.21846967915e-07,0.0,0.0,0.0,1.21846967915e-07,0.0,0.0,0.0,1.21846967915e-07,0.40207265,0.196133,9.8458766,9e-08,0.0,0.0,0.0,9e-08,0.0,0.0,0.0,9e-08
1531943892912480591,857,1531943892912059220,base_link,-0.197940737486,-0.175412812338,-0.552220558425,-0.790634090186,1.0,0.0,0.0,0.0,1.0,0.0,0.0,0.0,1.0,0.251851439476,-0.055635176599,-0.295939296484,1.21846967915e-07,0.0,0.0,0.0,1.21846967915e-07,0.0,0.0,0.0,1.21846967915e-07,0.18632635,0.7060788,6.63910205,9e-08,0.0,0.0,0.0,9e-08,0.0,0.0,0.0,9e-08
1531943893417729183,858,1531943893417438595,base_link,-0.226085990797,-0.180524962549,-0.464906791573,-0.836754168087,1.0,0.0,0.0,0.0,1.0,0.0,0.0,0.0,1.0,0.173205584288,-0.25976344943,-0.263325273991,1.21846967915e-07,0.0,0.0,0.0,1.21846967915e-07,0.0,0.0,0.0,1.21846967915e-07,0.7453054,0.16671305,13.77834325,9e-08,0.0,0.0,0.0,9e-08,0.0,0.0,0.0,9e-08
1531943893763079320,859,1531943893762763387,base_link,-0.264781524379,-0.160148715284,-0.418668010271,-0.853791678641,1.0,0.0,0.0,0.0,1.0,0.0,0.0,0.0,1.0,0.367158681154,-0.283952832222,-0.214491277933,1.21846967915e-07,0.0,0.0,0.0,1.21846967915e-07,0.0,0.0,0.0,1.21846967915e-07,0.42168595,0.2941995,14.13138265,9e-08,0.0,0.0,0.0,9e-08,0.0,0.0,0.0,9e-08
1531943894144160551,860,1531943894143827691,base_link,-0.265030016944,-0.134167786505,-0.354410260773,-0.886651826955,1.0,0.0,0.0,0.0,1.0,0.0,0.0,0.0,1.0,-0.247234806418,-0.18319812417,-0.5292724967,1.21846967915e-07,0.0,0.0,0.0,1.21846967915e-07,0.0,0.0,0.0,1.21846967915e-07,0.20593965,1.26505785,14.6511351,9e-08,0.0,0.0,0.0,9e-08,0.0,0.0,0.0,9e-08
1531943894482354515,861,1531943894481433469,base_link,-0.287780446145,-0.125471287711,-0.262444275807,-0.912448559028,1.0,0.0,0.0,0.0,1.0,0.0,0.0,0.0,1.0,0.351601958275,-0.303561061621,-0.353776365519,1.21846967915e-07,0.0,0.0,0.0,1.21846967915e-07,0.0,0.0,0.0,1.21846967915e-07,-0.50013915,-0.392266,12.3956056,9e-08,0.0,0.0,0.0,9e-08,0.0,0.0,0.0,9e-08
1531943894812730550,862,1531943894812127420,base_link,-0.31428866347,-0.0828351980898,-0.214717648917,-0.921008847523,1.0,0.0,0.0,0.0,1.0,0.0,0.0,0.0,1.0,-0.0481510125101,-0.373625457287,-0.0914690792561,1.21846967915e-07,0.0,0.0,0.0,1.21846967915e-07,0.0,0.0,0.0,1.21846967915e-07,-0.3726527,0.04903325,12.4152189,9e-08,0.0,0.0,0.0,9e-08,0.0,0.0,0.0,9e-08
1531943895202850568,863,1531943895198486968,base_link,-0.321340560981,-0.0304981328242,-0.174862436842,-0.930179141856,1.0,0.0,0.0,0.0,1.0,0.0,0.0,0.0,1.0,-0.364785403013,-0.268242567778,-0.152845308185,1.21846967915e-07,0.0,0.0,0.0,1.21846967915e-07,0.0,0.0,0.0,1.21846967915e-07,-0.4118793,0.5687857,12.73883835,9e-08,0.0,0.0,0.0,9e-08,0.0,0.0,0.0,9e-08
1531943895727834959,864,1531943895726869466,base_link,-0.232471374629,0.000335936640718,-0.0890781928552,-0.96851537039,1.0,0.0,0.0,0.0,1.0,0.0,0.0,0.0,1.0,-0.490508019924,-0.117038354278,-0.318593472242,1.21846967915e-07,0.0,0.0,0.0,1.21846967915e-07,0.0,0.0,0.0,1.21846967915e-07,-0.4118793,0.1765197,10.9638347,9e-08,0.0,0.0,0.0,9e-08,0.0,0.0,0.0,9e-08
1531943896177401943,865,1531943896177086906,base_link,-0.133034884859,0.0141790257986,-0.03530967849,-0.990380685011,1.0,0.0,0.0,0.0,1.0,0.0,0.0,0.0,1.0,-0.240900993347,-0.0100265424699,-0.134083166718,1.21846967915e-07,0.0,0.0,0.0,1.21846967915e-07,0.0,0.0,0.0,1.21846967915e-07,-0.0784532,0.10787315,9.36535075,9e-08,0.0,0.0,0.0,9e-08,0.0,0.0,0.0,9e-08
1531943896577404675,866,1531943896576960712,base_link,-0.0602558660353,0.0043152148634,-0.0087274685574,-0.998135482197,1.0,0.0,0.0,0.0,1.0,0.0,0.0,0.0,1.0,-0.366414189339,0.075539201498,-0.106101542711,1.21846967915e-07,0.0,0.0,0.0,1.21846967915e-07,0.0,0.0,0.0,1.21846967915e-07,-0.06864655,-0.10787315,7.060788,9e-08,0.0,0.0,0.0,9e-08,0.0,0.0,0.0,9e-08
1531943897012400463,867,1531943897012115026,base_link,-0.0223178542826,-0.0155979822061,0.00171942749005,-0.999627760669,1.0,0.0,0.0,0.0,1.0,0.0,0.0,0.0,1.0,-0.187819302082,0.0851207822561,0.019764456898,1.21846967915e-07,0.0,0.0,0.0,1.21846967915e-07,0.0,0.0,0.0,1.21846967915e-07,0.22555295,8.95922316951e-16,7.3157609,9e-08,0.0,0.0,0.0,9e-08,0.0,0.0,0.0,9e-08
1531943897564896021,868,1531943897564621592,base_link,0.0150871941266,-0.0421684958554,-0.013896397094,-0.99889993727,1.0,0.0,0.0,0.0,1.0,0.0,0.0,0.0,1.0,-0.0758194997907,0.0911967232823,0.0475043691695,1.21846967915e-07,0.0,0.0,0.0,1.21846967915e-07,0.0,0.0,0.0,1.21846967915e-07,0.4903325,0.42168595,8.2179727,9e-08,0.0,0.0,0.0,9e-08,0.0,0.0,0.0,9e-08
1531943898015005857,869,1531943898014788260,base_link,0.0475667984348,-0.0410072945551,-0.0138159260961,-0.997930319043,1.0,0.0,0.0,0.0,1.0,0.0,0.0,0.0,1.0,-0.0408453159034,-0.054355379194,0.0169756170362,1.21846967915e-07,0.0,0.0,0.0,1.21846967915e-07,0.0,0.0,0.0,1.21846967915e-07,0.71588545,-0.24516625,11.09132115,9e-08,0.0,0.0,0.0,9e-08,0.0,0.0,0.0,9e-08
1531943898456991757,870,1531943898456706416,base_link,0.0324533611527,-0.0254896731162,-0.0308634950552,-0.998671367662,1.0,0.0,0.0,0.0,1.0,0.0,0.0,0.0,1.0,0.150851413608,-0.0838097035885,0.0445560067892,1.21846967915e-07,0.0,0.0,0.0,1.21846967915e-07,0.0,0.0,0.0,1.21846967915e-07,0.30400615,0.0392266,10.52253545,9e-08,0.0,0.0,0.0,9e-08,0.0,0.0,0.0,9e-08
1531943898874124521,871,1531943898873718382,base_link,0.0158620936816,-0.00734889981514,-0.0346385556889,-0.99924699555,1.0,0.0,0.0,0.0,1.0,0.0,0.0,0.0,1.0,0.0941150337458,-0.0894896686077,-0.000864353962243,1.21846967915e-07,0.0,0.0,0.0,1.21846967915e-07,0.0,0.0,0.0,1.21846967915e-07,0.0784532,-0.0196133,11.07170785,9e-08,0.0,0.0,0.0,9e-08,0.0,0.0,0.0,9e-08
1531943899280281219,872,1531943899279291693,base_link,0.0117658174325,0.0103567865207,-0.0381155089761,-0.999150394329,1.0,0.0,0.0,0.0,1.0,0.0,0.0,0.0,1.0,-0.0340693071485,-0.0540226921439,0.0201314799488,1.21846967915e-07,0.0,0.0,0.0,1.21846967915e-07,0.0,0.0,0.0,1.21846967915e-07,0.0392266,0.0588399,10.7088618,9e-08,0.0,0.0,0.0,9e-08,0.0,0.0,0.0,9e-08
1531943899694873921,873,1531943899694420294,base_link,0.0129506750679,0.0185225377356,-0.0455414358081,-0.998706750371,1.0,0.0,0.0,0.0,1.0,0.0,0.0,0.0,1.0,0.0566924251616,-0.0029484461993,0.0265661180019,1.21846967915e-07,0.0,0.0,0.0,1.21846967915e-07,0.0,0.0,0.0,1.21846967915e-07,0.42168595,0.06864655,10.3362091,9e-08,0.0,0.0,0.0,9e-08,0.0,0.0,0.0,9e-08
1531943900091663524,874,1531943900091317256,base_link,0.000129531842044,0.0175230634309,-0.0493966075078,-0.998625505701,1.0,0.0,0.0,0.0,1.0,0.0,0.0,0.0,1.0,0.0223301947117,0.0301701966673,0.00310192583129,1.21846967915e-07,0.0,0.0,0.0,1.21846967915e-07,0.0,0.0,0.0,1.21846967915e-07,0.48052585,0.3334261,9.80665,9e-08,0.0,0.0,0.0,9e-08,0.0,0.0,0.0,9e-08
1531943900562407362,875,1531943900562210148,base_link,-0.0142805785959,0.00914469174162,-0.0387597741228,-0.999104658981,1.0,0.0,0.0,0.0,1.0,0.0,0.0,0.0,1.0,0.0242574997246,0.0473662465811,-0.0730262547731,1.21846967915e-07,0.0,0.0,0.0,1.21846967915e-07,0.0,0.0,0.0,1.21846967915e-07,0.63743225,0.32361945,9.18883105,9e-08,0.0,0.0,0.0,9e-08,0.0,0.0,0.0,9e-08
1531943900974377764,876,1531943900974101127,base_link,-0.0240747826255,0.00412465715033,-0.0313330950012,-0.999210502948,1.0,0.0,0.0,0.0,1.0,0.0,0.0,0.0,1.0,-0.0132795693353,0.013965819031,0.0603107400239,1.21846967915e-07,0.0,0.0,0.0,1.21846967915e-07,0.0,0.0,0.0,1.21846967915e-07,0.784532,0.0196133,10.0223963,9e-08,0.0,0.0,0.0,9e-08,0.0,0.0,0.0,9e-08
1531943901483556132,877,1531943901483096969,base_link,-0.00868755783548,0.00148063842151,-0.0424551953155,-0.999059502952,1.0,0.0,0.0,0.0,1.0,0.0,0.0,0.0,1.0,-0.262894153595,0.0194223765284,-0.0191455967724,1.21846967915e-07,0.0,0.0,0.0,1.21846967915e-07,0.0,0.0,0.0,1.21846967915e-07,0.48052585,0.5295591,9.8458766,9e-08,0.0,0.0,0.0,9e-08,0.0,0.0,0.0,9e-08
1531943901944416597,878,1531943901942143854,base_link,0.0156204904782,-0.00585441175294,-0.0240172683392,-0.999572357042,1.0,0.0,0.0,0.0,1.0,0.0,0.0,0.0,1.0,0.0102637289092,0.0105046220124,-0.0998441651464,1.21846967915e-07,0.0,0.0,0.0,1.21846967915e-07,0.0,0.0,0.0,1.21846967915e-07,0.50013915,0.0980665,8.2768126,9e-08,0.0,0.0,0.0,9e-08,0.0,0.0,0.0,9e-08
1531943902288727556,879,1531943902288420999,base_link,0.0112694508992,-0.00970618764618,-0.0154878285096,-0.999769431702,1.0,0.0,0.0,0.0,1.0,0.0,0.0,0.0,1.0,-0.0370951145887,0.0336686372757,0.00711014913395,1.21846967915e-07,0.0,0.0,0.0,1.21846967915e-07,0.0,0.0,0.0,1.21846967915e-07,0.6472389,-0.196133,9.11037785,9e-08,0.0,0.0,0.0,9e-08,0.0,0.0,0.0,9e-08
1531943902670680984,880,1531943902670313468,base_link,0.0137238535386,-0.0077475456971,-0.02774757772,-0.999490721973,1.0,0.0,0.0,0.0,1.0,0.0,0.0,0.0,1.0,0.0108895404264,-0.00309153273702,0.098822131753,1.21846967915e-07,0.0,0.0,0.0,1.21846967915e-07,0.0,0.0,0.0,1.21846967915e-07,0.89240515,0.2745862,9.4928372,9e-08,0.0,0.0,0.0,9e-08,0.0,0.0,0.0,9e-08
1531943902978017275,881,1531943902977705086,base_link,0.00145649065258,-0.00712564246701,-0.0367804615659,-0.999296903578,1.0,0.0,0.0,0.0,1.0,0.0,0.0,0.0,1.0,-0.0382069125772,0.00491637736559,0.0433003865182,1.21846967915e-07,0.0,0.0,0.0,1.21846967915e-07,0.0,0.0,0.0,1.21846967915e-07,1.0198916,0.3726527,9.5712904,9e-08,0.0,0.0,0.0,9e-08,0.0,0.0,0.0,9e-08
1531943903307031478,882,1531943903303766169,base_link,0.0188389726159,-0.00357464247969,-0.038418607976,-0.999077737518,1.0,0.0,0.0,0.0,1.0,0.0,0.0,0.0,1.0,-0.116065524518,-0.0142766926438,-0.0840229094028,1.21846967915e-07,0.0,0.0,0.0,1.21846967915e-07,0.0,0.0,0.0,1.21846967915e-07,0.63743225,0.32361945,9.93413645,9e-08,0.0,0.0,0.0,9e-08,0.0,0.0,0.0,9e-08
1531943903863220739,883,1531943903862862439,base_link,0.00928712640653,0.00536694809514,-0.0239705292552,-0.999655119968,1.0,0.0,0.0,0.0,1.0,0.0,0.0,0.0,1.0,0.0222015865147,-0.0257808379829,0.0133864814416,1.21846967915e-07,0.0,0.0,0.0,1.21846967915e-07,0.0,0.0,0.0,1.21846967915e-07,0.4314926,-0.04903325,9.48303055,9e-08,0.0,0.0,0.0,9e-08,0.0,0.0,0.0,9e-08
1531943904327237058,884,1531943904326596713,base_link,-0.0120898650846,0.0133801688669,-0.0316497464632,-0.999336329667,1.0,0.0,0.0,0.0,1.0,0.0,0.0,0.0,1.0,0.122331351042,-0.0276520252228,0.0439936853945,1.21846967915e-07,0.0,0.0,0.0,1.21846967915e-07,0.0,0.0,0.0,1.21846967915e-07,0.42168595,0.0196133,11.8072066,9e-08,0.0,0.0,0.0,9e-08,0.0,0.0,0.0,9e-08
1531943904687194257,885,1531943904686840149,base_link,-0.0151453935592,0.0201272557498,-0.0354477378751,-0.999054036832,1.0,0.0,0.0,0.0,1.0,0.0,0.0,0.0,1.0,-0.0465130582452,-0.0213175006211,-0.0257841944695,1.21846967915e-07,0.0,0.0,0.0,1.21846967915e-07,0.0,0.0,0.0,1.21846967915e-07,0.42168595,0.53936575,11.16977435,9e-08,0.0,0.0,0.0,9e-08,0.0,0.0,0.0,9e-08
1531943905115876501,886,1531943905115055806,base_link,0.00420394693788,0.0172199999762,-0.0135184519799,-0.999751494066,1.0,0.0,0.0,0.0,1.0,0.0,0.0,0.0,1.0,0.106552638113,-0.0138430614024,-0.124771468341,1.21846967915e-07,0.0,0.0,0.0,1.21846967915e-07,0.0,0.0,0.0,1.21846967915e-07,0.5099458,0.0784532,10.20872265,9e-08,0.0,0.0,0.0,9e-08,0.0,0.0,0.0,9e-08
1531943905587902885,887,1531943905587192972,base_link,-0.033288535552,0.0208138605482,-0.00451083189646,-0.999218849405,1.0,0.0,0.0,0.0,1.0,0.0,0.0,0.0,1.0,0.157310426235,-0.000774478539824,0.00804965011775,1.21846967915e-07,0.0,0.0,0.0,1.21846967915e-07,0.0,0.0,0.0,1.21846967915e-07,0.32361945,-0.1176798,10.81673495,9e-08,0.0,0.0,0.0,9e-08,0.0,0.0,0.0,9e-08
1531943905917588801,888,1531943905914946814,base_link,-0.0360673037354,0.0157686278341,-0.00867876359201,-0.999187259246,1.0,0.0,0.0,0.0,1.0,0.0,0.0,0.0,1.0,-0.0179518889636,0.057962551713,-0.0206678882241,1.21846967915e-07,0.0,0.0,0.0,1.21846967915e-07,0.0,0.0,0.0,1.21846967915e-07,-0.16671305,0.59820565,8.1002929,9e-08,0.0,0.0,0.0,9e-08,0.0,0.0,0.0,9e-08
1531943906234376621,889,1531943906233919730,base_link,-0.044688103475,0.00247706432327,0.0124392455235,-0.998920468672,1.0,0.0,0.0,0.0,1.0,0.0,0.0,0.0,1.0,0.136426612735,0.101735197008,-0.173045963049,1.21846967915e-07,0.0,0.0,0.0,1.21846967915e-07,0.0,0.0,0.0,1.21846967915e-07,0.18632635,0.10787315,7.7080269,9e-08,0.0,0.0,0.0,9e-08,0.0,0.0,0.0,9e-08
1531943906633950999,890,1531943906633583003,base_link,-0.0421314583709,-0.0104962474082,0.0217625151097,-0.998819884635,1.0,0.0,0.0,0.0,1.0,0.0,0.0,0.0,1.0,-0.241458699107,0.0683512091637,0.0319839641452,1.21846967915e-07,0.0,0.0,0.0,1.21846967915e-07,0.0,0.0,0.0,1.21846967915e-07,0.392266,-0.02941995,8.2179727,9e-08,0.0,0.0,0.0,9e-08,0.0,0.0,0.0,9e-08
1531943907073762477,891,1531943907073255858,base_link,-0.021515560654,-0.0205826811004,0.0145319292135,-0.999450977748,1.0,0.0,0.0,0.0,1.0,0.0,0.0,0.0,1.0,-0.107769452035,0.00947813130915,0.0685035139322,1.21846967915e-07,0.0,0.0,0.0,1.21846967915e-07,0.0,0.0,0.0,1.21846967915e-07,0.3530394,-0.0392266,9.85568325,9e-08,0.0,0.0,0.0,9e-08,0.0,0.0,0.0,9e-08
1531943907537157512,892,1531943907536928907,base_link,0.00358946923626,-0.0254971750061,0.0058222239184,-0.999651495015,1.0,0.0,0.0,0.0,1.0,0.0,0.0,0.0,1.0,-0.158853635192,-0.00208780542016,-0.000374397728592,1.21846967915e-07,0.0,0.0,0.0,1.21846967915e-07,0.0,0.0,0.0,1.21846967915e-07,0.14709975,-0.00980665,10.24794925,9e-08,0.0,0.0,0.0,9e-08,0.0,0.0,0.0,9e-08
1531943907959170853,893,1531943907958560715,base_link,0.00330903975121,-0.0223971645626,0.00771062689739,-0.999713940839,1.0,0.0,0.0,0.0,1.0,0.0,0.0,0.0,1.0,0.175817906857,-0.0336213037372,-0.0115264384076,1.21846967915e-07,0.0,0.0,0.0,1.21846967915e-07,0.0,0.0,0.0,1.21846967915e-07,-0.4118793,0.18632635,10.03220295,9e-08,0.0,0.0,0.0,9e-08,0.0,0.0,0.0,9e-08
1531943908417308830,894,1531943908416847907,base_link,0.00411570058558,-0.0171731634922,0.0075994384183,-0.999815178921,1.0,0.0,0.0,0.0,1.0,0.0,0.0,0.0,1.0,-0.186629518867,0.00402978993952,0.0161631591618,1.21846967915e-07,0.0,0.0,0.0,1.21846967915e-07,0.0,0.0,0.0,1.21846967915e-07,-0.24516625,-0.0588399,10.591182,9e-08,0.0,0.0,0.0,9e-08,0.0,0.0,0.0,9e-08
1531943908785250825,895,1531943908785002604,base_link,-0.00200545789453,-0.0175800664243,-0.00416096130618,-0.999834789255,1.0,0.0,0.0,0.0,1.0,0.0,0.0,0.0,1.0,0.0973068922758,-0.00168912112713,0.117288209498,1.21846967915e-07,0.0,0.0,0.0,1.21846967915e-07,0.0,0.0,0.0,1.21846967915e-07,-0.63743225,0.1176798,7.9041599,9e-08,0.0,0.0,0.0,9e-08,0.0,0.0,0.0,9e-08
1531943909190064935,896,1531943909189698827,base_link,0.0253681280431,-0.0193259533508,-0.0104487176937,-0.99943673632,1.0,0.0,0.0,0.0,1.0,0.0,0.0,0.0,1.0,-0.290145993233,0.043166026473,-0.0528177991509,1.21846967915e-07,0.0,0.0,0.0,1.21846967915e-07,0.0,0.0,0.0,1.21846967915e-07,-0.0980665,0.2549729,8.1395195,9e-08,0.0,0.0,0.0,9e-08,0.0,0.0,0.0,9e-08
1531943909640438652,897,1531943909639859714,base_link,-0.00250260847975,-0.0292103075145,0.00301147708943,-0.999565618602,1.0,0.0,0.0,0.0,1.0,0.0,0.0,0.0,1.0,0.245404034853,0.037059083581,0.0130823682994,1.21846967915e-07,0.0,0.0,0.0,1.21846967915e-07,0.0,0.0,0.0,1.21846967915e-07,0.2549729,-0.1372931,8.83579165,9e-08,0.0,0.0,0.0,9e-08,0.0,0.0,0.0,9e-08
1531943910110623291,898,1531943910110391421,base_link,-0.0101272276225,-0.032427377753,-0.0258099326395,-0.999089461365,1.0,0.0,0.0,0.0,1.0,0.0,0.0,0.0,1.0,-0.222124949098,0.00859604775906,0.0689396262169,1.21846967915e-07,0.0,0.0,0.0,1.21846967915e-07,0.0,0.0,0.0,1.21846967915e-07,-0.00980665,0.75511205,9.79684335,9e-08,0.0,0.0,0.0,9e-08,0.0,0.0,0.0,9e-08
1531943910526579624,899,1531943910521838171,base_link,0.00587321591566,-0.0379475286269,-0.00586452637387,-0.999245264055,1.0,0.0,0.0,0.0,1.0,0.0,0.0,0.0,1.0,0.153856679797,-0.0147442668676,-0.152786195278,1.21846967915e-07,0.0,0.0,0.0,1.21846967915e-07,0.0,0.0,0.0,1.21846967915e-07,-0.0588399,0.1569064,9.42419065,9e-08,0.0,0.0,0.0,9e-08,0.0,0.0,0.0,9e-08
1531943911030505727,900,1531943911030187042,base_link,-0.0323505709366,-0.0321900004386,0.00410141285357,-0.998949659815,1.0,0.0,0.0,0.0,1.0,0.0,0.0,0.0,1.0,0.154078289866,-0.0336756408215,0.0365450046957,1.21846967915e-07,0.0,0.0,0.0,1.21846967915e-07,0.0,0.0,0.0,1.21846967915e-07,-0.1569064,0.0588399,9.4732239,9e-08,0.0,0.0,0.0,9e-08,0.0,0.0,0.0,9e-08
1531943911400289413,901,1531943911399989033,base_link,-0.0316126372866,-0.0239926544431,-0.00355414017725,-0.999205865567,1.0,0.0,0.0,0.0,1.0,0.0,0.0,0.0,1.0,-0.197013363242,-0.0333621427417,0.00338605325669,1.21846967915e-07,0.0,0.0,0.0,1.21846967915e-07,0.0,0.0,0.0,1.21846967915e-07,-0.10787315,0.3726527,11.38552065,9e-08,0.0,0.0,0.0,9e-08,0.0,0.0,0.0,9e-08
1531943911933262313,902,1531943911929796335,base_link,-0.0644178222159,-0.00764936922395,-0.00827720898943,-0.99785936842,1.0,0.0,0.0,0.0,1.0,0.0,0.0,0.0,1.0,0.0306289177388,-0.067091345787,0.0949533209205,1.21846967915e-07,0.0,0.0,0.0,1.21846967915e-07,0.0,0.0,0.0,1.21846967915e-07,-0.04903325,-0.02941995,13.0820711,9e-08,0.0,0.0,0.0,9e-08,0.0,0.0,0.0,9e-08
1531943912344885840,903,1531943912343965050,base_link,-0.0174970385118,0.0015184893119,-0.0344409550068,-0.999252404777,1.0,0.0,0.0,0.0,1.0,0.0,0.0,0.0,1.0,-0.311638355255,-0.00383388064802,0.0611249767244,1.21846967915e-07,0.0,0.0,0.0,1.21846967915e-07,0.0,0.0,0.0,1.21846967915e-07,-0.32361945,0.3138128,9.1594111,9e-08,0.0,0.0,0.0,9e-08,0.0,0.0,0.0,9e-08
1531943912813413105,904,1531943912812996470,base_link,0.000233418153639,-0.00733841901078,-0.0104411267373,-0.999918534679,1.0,0.0,0.0,0.0,1.0,0.0,0.0,0.0,1.0,0.261459052563,0.0249538011849,-0.128260448575,1.21846967915e-07,0.0,0.0,0.0,1.21846967915e-07,0.0,0.0,0.0,1.21846967915e-07,-0.14709975,-0.2941995,10.0616229,9e-08,0.0,0.0,0.0,9e-08,0.0,0.0,0.0,9e-08
1531943913146471465,905,1531943913143761831,base_link,-0.0255167826161,-0.0123111126387,-0.0173599062411,-0.999447829537,1.0,0.0,0.0,0.0,1.0,0.0,0.0,0.0,1.0,0.116763390601,-0.0210800357163,0.0904003754258,1.21846967915e-07,0.0,0.0,0.0,1.21846967915e-07,0.0,0.0,0.0,1.21846967915e-07,0.196133,-0.1569064,9.62032365,9e-08,0.0,0.0,0.0,9e-08,0.0,0.0,0.0,9e-08
1531943913597258959,906,1531943913595946461,base_link,-0.0954057114866,-0.0214935994166,-0.0177783244746,-0.995047590107,1.0,0.0,0.0,0.0,1.0,0.0,0.0,0.0,1.0,0.432067573071,0.0448255762458,-0.0973045006394,1.21846967915e-07,0.0,0.0,0.0,1.21846967915e-07,0.0,0.0,0.0,1.21846967915e-07,0.08825985,0.2745862,7.93357985,9e-08,0.0,0.0,0.0,9e-08,0.0,0.0,0.0,9e-08
1531943913942285993,907,1531943913940062433,base_link,-0.15340432537,-0.0285088416518,0.00609805885983,-0.987733350952,1.0,0.0,0.0,0.0,1.0,0.0,0.0,0.0,1.0,0.171266317368,-0.0315241590142,-0.154987469316,1.21846967915e-07,0.0,0.0,0.0,1.21846967915e-07,0.0,0.0,0.0,1.21846967915e-07,0.34323275,0.3138128,8.14932615,9e-08,0.0,0.0,0.0,9e-08,0.0,0.0,0.0,9e-08
1531943914435791080,908,1531943914435489612,base_link,-0.221610373717,-0.0295652413313,0.0485610978054,-0.973476532098,1.0,0.0,0.0,0.0,1.0,0.0,0.0,0.0,1.0,0.568835198879,-0.0377341732383,-0.258102536201,1.21846967915e-07,0.0,0.0,0.0,1.21846967915e-07,0.0,0.0,0.0,1.21846967915e-07,0.89240515,0.4707192,9.79684335,9e-08,0.0,0.0,0.0,9e-08,0.0,0.0,0.0,9e-08
1531943914824724335,909,1531943914822692036,base_link,-0.320349870748,-0.0177654100517,0.115417824045,-0.940073973903,1.0,0.0,0.0,0.0,1.0,0.0,0.0,0.0,1.0,0.603551387787,-0.225503534079,-0.344282001257,1.21846967915e-07,0.0,0.0,0.0,1.21846967915e-07,0.0,0.0,0.0,1.21846967915e-07,0.89240515,0.12748645,10.0223963,9e-08,0.0,0.0,0.0,9e-08,0.0,0.0,0.0,9e-08
1531943915272096675,910,1531943915271827238,base_link,-0.36128281504,0.044264071291,0.207514014768,-0.907994137219,1.0,0.0,0.0,0.0,1.0,0.0,0.0,0.0,1.0,-0.247828871012,-0.457881063223,-0.270586460829,1.21846967915e-07,0.0,0.0,0.0,1.21846967915e-07,0.0,0.0,0.0,1.21846967915e-07,1.46119085,0.9414384,16.73995155,9e-08,0.0,0.0,0.0,9e-08,0.0,0.0,0.0,9e-08
1531943915630037882,911,1531943915628680809,base_link,-0.323230061304,0.0881884158773,0.276982708159,-0.900569658691,1.0,0.0,0.0,0.0,1.0,0.0,0.0,0.0,1.0,-0.095079831779,-0.407778501511,-0.301418811083,1.21846967915e-07,0.0,0.0,0.0,1.21846967915e-07,0.0,0.0,0.0,1.21846967915e-07,0.61781895,0.46091255,15.03359445,9e-08,0.0,0.0,0.0,9e-08,0.0,0.0,0.0,9e-08
1531943916026957743,912,1531943916026397173,base_link,-0.346316098914,0.158531573495,0.341507405397,-0.859247107587,1.0,0.0,0.0,0.0,1.0,0.0,0.0,0.0,1.0,0.10141633451,-0.397932291031,-0.223363086581,1.21846967915e-07,0.0,0.0,0.0,1.21846967915e-07,0.0,0.0,0.0,1.21846967915e-07,0.0392266,0.5295591,14.3569356,9e-08,0.0,0.0,0.0,9e-08,0.0,0.0,0.0,9e-08
1531943916238897964,913,1531943916238577167,base_link,-0.344034701854,0.184897399351,0.374250846049,-0.841064432647,1.0,0.0,0.0,0.0,1.0,0.0,0.0,0.0,1.0,0.0530547350645,-0.397129714489,-0.276003986597,1.21846967915e-07,0.0,0.0,0.0,1.21846967915e-07,0.0,0.0,0.0,1.21846967915e-07,0.0392266,0.7256921,15.8279331,9e-08,0.0,0.0,0.0,9e-08,0.0,0.0,0.0,9e-08
1531943916542439473,914,1531943916540946849,base_link,-0.335320638239,0.212084413346,0.424533014519,-0.813850103379,1.0,0.0,0.0,0.0,1.0,0.0,0.0,0.0,1.0,-0.0540080107749,-0.359779238701,-0.350474536419,1.21846967915e-07,0.0,0.0,0.0,1.21846967915e-07,0.0,0.0,0.0,1.21846967915e-07,-0.24516625,0.85317855,13.95486295,9e-08,0.0,0.0,0.0,9e-08,0.0,0.0,0.0,9e-08
1531943916994495100,915,1531943916994257918,base_link,-0.318025513812,0.246380746137,0.526189306473,-0.749186968821,1.0,0.0,0.0,0.0,1.0,0.0,0.0,0.0,1.0,0.0337376147509,-0.374227762222,-0.462887763977,1.21846967915e-07,0.0,0.0,0.0,1.21846967915e-07,0.0,0.0,0.0,1.21846967915e-07,-0.2549729,0.71588545,14.0038962,9e-08,0.0,0.0,0.0,9e-08,0.0,0.0,0.0,9e-08
1531943917398321200,916,1531943917398031891,base_link,-0.277659931829,0.276862138087,0.611847838756,-0.686945806421,1.0,0.0,0.0,0.0,1.0,0.0,0.0,0.0,1.0,-0.1881044209,-0.478061974049,-0.292783260345,1.21846967915e-07,0.0,0.0,0.0,1.21846967915e-07,0.0,0.0,0.0,1.21846967915e-07,-0.08825985,0.2353596,15.2787607,9e-08,0.0,0.0,0.0,9e-08,0.0,0.0,0.0,9e-08
1531943917872034904,917,1531943917871781498,base_link,0.175029254558,-0.264032319532,-0.69594282318,0.644449595512,1.0,0.0,0.0,0.0,1.0,0.0,0.0,0.0,1.0,-0.58428132534,-0.276204198599,-0.2809907794,1.21846967915e-07,0.0,0.0,0.0,1.21846967915e-07,0.0,0.0,0.0,1.21846967915e-07,-0.1176798,0.4118793,12.20927925,9e-08,0.0,0.0,0.0,9e-08,0.0,0.0,0.0,9e-08
1531943918123587663,918,1531943918123123668,base_link,0.115529531837,-0.221680291224,-0.743966675026,0.619696992253,1.0,0.0,0.0,0.0,1.0,0.0,0.0,0.0,1.0,-0.5895575881,-0.188785433769,-0.277741521597,1.21846967915e-07,0.0,0.0,0.0,1.21846967915e-07,0.0,0.0,0.0,1.21846967915e-07,-0.24516625,0.14709975,11.48358715,9e-08,0.0,0.0,0.0,9e-08,0.0,0.0,0.0,9e-08
1531943918445471574,919,1531943918445150682,base_link,0.0409582545528,-0.151527529994,-0.790180847736,0.59243232264,1.0,0.0,0.0,0.0,1.0,0.0,0.0,0.0,1.0,-0.665148735046,-0.0999447181821,-0.206152975559,1.21846967915e-07,0.0,0.0,0.0,1.21846967915e-07,0.0,0.0,0.0,1.21846967915e-07,0.08825985,0.3138128,12.71922505,9e-08,0.0,0.0,0.0,9e-08,0.0,0.0,0.0,9e-08
1531943918827333083,920,1531943918827070046,base_link,-0.0162025726489,-0.0767050489115,-0.822248001712,0.56370385469,1.0,0.0,0.0,0.0,1.0,0.0,0.0,0.0,1.0,-0.41959387064,0.0103366598487,-0.115773588419,1.21846967915e-07,0.0,0.0,0.0,1.21846967915e-07,0.0,0.0,0.0,1.21846967915e-07,0.04903325,0.06864655,12.40541225,9e-08,0.0,0.0,0.0,9e-08,0.0,0.0,0.0,9e-08
1531943919165572277,921,1531943919165133722,base_link,-0.0544876845242,-0.0163218083326,-0.831898126301,0.552005614342,1.0,0.0,0.0,0.0,1.0,0.0,0.0,0.0,1.0,-0.298750787973,0.0473841577768,-0.0392093248665,1.21846967915e-07,0.0,0.0,0.0,1.21846967915e-07,0.0,0.0,0.0,1.21846967915e-07,-0.0588399,0.2745862,9.1005712,9e-08,0.0,0.0,0.0,9e-08,0.0,0.0,0.0,9e-08
1531943919665665645,922,1531943919665215185,base_link,-0.0722111480932,0.0388136559672,-0.825173444904,0.558898770822,1.0,0.0,0.0,0.0,1.0,0.0,0.0,0.0,1.0,-0.189725339413,0.110877245665,0.195733889937,1.21846967915e-07,0.0,0.0,0.0,1.21846967915e-07,0.0,0.0,0.0,1.21846967915e-07,0.3530394,-0.4511059,8.63965865,9e-08,0.0,0.0,0.0,9e-08,0.0,0.0,0.0,9e-08
1531943920148124515,923,1531943920147746535,base_link,-0.0667533002035,0.0828811254937,-0.799688693135,0.59090837701,1.0,0.0,0.0,0.0,1.0,0.0,0.0,0.0,1.0,-0.0813797414303,0.120222300291,0.118539556861,1.21846967915e-07,0.0,0.0,0.0,1.21846967915e-07,0.0,0.0,0.0,1.21846967915e-07,0.44129925,0.12748645,8.12971285,9e-08,0.0,0.0,0.0,9e-08,0.0,0.0,0.0,9e-08
1531943920554118128,924,1531943920550651989,base_link,-0.0524781408956,0.109713117852,-0.793898379103,0.595763745252,1.0,0.0,0.0,0.0,1.0,0.0,0.0,0.0,1.0,0.0996097102761,0.105964906514,0.0161620825529,1.21846967915e-07,0.0,0.0,0.0,1.21846967915e-07,0.0,0.0,0.0,1.21846967915e-07,0.2745862,-0.18632635,5.491724,9e-08,0.0,0.0,0.0,9e-08,0.0,0.0,0.0,9e-08
1531943920872139913,925,1531943920871553327,base_link,-0.0225479063029,0.095191963624,-0.788349076981,0.607400868295,1.0,0.0,0.0,0.0,1.0,0.0,0.0,0.0,1.0,0.134262993932,0.0807332396507,0.145399481058,1.21846967915e-07,0.0,0.0,0.0,1.21846967915e-07,0.0,0.0,0.0,1.21846967915e-07,0.53936575,-0.2353596,7.65899365,9e-08,0.0,0.0,0.0,9e-08,0.0,0.0,0.0,9e-08
1531943921275551412,926,1531943921275038394,base_link,-0.00396080070832,0.0828439797157,-0.77376740893,0.628016865984,1.0,0.0,0.0,0.0,1.0,0.0,0.0,0.0,1.0,0.0307469628751,-0.000660948455334,0.0865521132946,1.21846967915e-07,0.0,0.0,0.0,1.21846967915e-07,0.0,0.0,0.0,1.21846967915e-07,0.6864655,0.0980665,9.8654899,9e-08,0.0,0.0,0.0,9e-08,0.0,0.0,0.0,9e-08
1531943921789682499,927,1531943921789190472,base_link,-0.00941792937583,0.0740977341961,-0.761048811559,0.644379961528,1.0,0.0,0.0,0.0,1.0,0.0,0.0,0.0,1.0,-0.0220617391169,-0.022720919922,0.086030177772,1.21846967915e-07,0.0,0.0,0.0,1.21846967915e-07,0.0,0.0,0.0,1.21846967915e-07,0.3530394,0.0392266,9.48303055,9e-08,0.0,0.0,0.0,9e-08,0.0,0.0,0.0,9e-08
1531943922189035517,928,1531943922188769248,base_link,-0.0150632967846,0.0582161911247,-0.752988699161,0.655280086007,1.0,0.0,0.0,0.0,1.0,0.0,0.0,0.0,1.0,0.0656121075153,-0.0821358561516,0.0602049976587,1.21846967915e-07,0.0,0.0,0.0,1.21846967915e-07,0.0,0.0,0.0,1.21846967915e-07,0.1569064,-0.10787315,10.18910935,9e-08,0.0,0.0,0.0,9e-08,0.0,0.0,0.0,9e-08
1531943922516917972,929,1531943922516122813,base_link,-0.0145936518592,0.0380824188467,-0.744111288158,0.666809677146,1.0,0.0,0.0,0.0,1.0,0.0,0.0,0.0,1.0,0.0575304925442,-0.0919680297375,0.0893863961101,1.21846967915e-07,0.0,0.0,0.0,1.21846967915e-07,0.0,0.0,0.0,1.21846967915e-07,0.28439285,-0.04903325,10.5127288,9e-08,0.0,0.0,0.0,9e-08,0.0,0.0,0.0,9e-08
1531943922996404186,930,1531943922988861739,base_link,-0.01207759946,0.0110228927962,-0.732659979329,0.680398399554,1.0,0.0,0.0,0.0,1.0,0.0,0.0,0.0,1.0,0.0861572027206,-0.0558646433055,0.0623864792287,1.21846967915e-07,0.0,0.0,0.0,1.21846967915e-07,0.0,0.0,0.0,1.21846967915e-07,0.40207265,0.12748645,11.2384209,9e-08,0.0,0.0,0.0,9e-08,0.0,0.0,0.0,9e-08
1531943923415294635,931,1531943923415013326,base_link,-0.0112290464397,0.00147718034019,-0.729195848616,0.684211327599,1.0,0.0,0.0,0.0,1.0,0.0,0.0,0.0,1.0,0.0534856393933,-0.00764840468764,-0.0454885475338,1.21846967915e-07,0.0,0.0,0.0,1.21846967915e-07,0.0,0.0,0.0,1.21846967915e-07,0.1176798,0.14709975,9.54187045,9e-08,0.0,0.0,0.0,9e-08,0.0,0.0,0.0,9e-08
1531943923905749922,932,1531943923905449157,base_link,0.00264088718911,-0.0212235880366,-0.726759654413,0.686558802829,1.0,0.0,0.0,0.0,1.0,0.0,0.0,0.0,1.0,0.0469234101474,-0.0290670879185,0.0761725008488,1.21846967915e-07,0.0,0.0,0.0,1.21846967915e-07,0.0,0.0,0.0,1.21846967915e-07,0.2745862,-0.26477955,10.2577559,9e-08,0.0,0.0,0.0,9e-08,0.0,0.0,0.0,9e-08
1531943924289974215,933,1531943924289659178,base_link,-0.00299225434856,-0.0200099864352,-0.715805946244,0.698006084628,1.0,0.0,0.0,0.0,1.0,0.0,0.0,0.0,1.0,-0.052253510803,0.0015879906714,0.0242411009967,1.21846967915e-07,0.0,0.0,0.0,1.21846967915e-07,0.0,0.0,0.0,1.21846967915e-07,0.0784532,0.32361945,10.28717585,9e-08,0.0,0.0,0.0,9e-08,0.0,0.0,0.0,9e-08
1531943924782620460,934,1531943924777419811,base_link,0.00851356780545,-0.0287023345308,-0.718390292913,0.69499574258,1.0,0.0,0.0,0.0,1.0,0.0,0.0,0.0,1.0,0.162650108337,0.00300049781799,-0.0270391497761,1.21846967915e-07,0.0,0.0,0.0,1.21846967915e-07,0.0,0.0,0.0,1.21846967915e-07,-0.2941995,0.196133,9.3163175,9e-08,0.0,0.0,0.0,9e-08,0.0,0.0,0.0,9e-08
1531943925269314932,935,1531943925268979639,base_link,0.0463533003549,-0.0679361659269,-0.72091383653,0.688127378619,1.0,0.0,0.0,0.0,1.0,0.0,0.0,0.0,1.0,0.290804773569,0.000757759436965,-0.062284424901,1.21846967915e-07,0.0,0.0,0.0,1.21846967915e-07,0.0,0.0,0.0,1.21846967915e-07,-0.3334261,0.12748645,8.7083052,9e-08,0.0,0.0,0.0,9e-08,0.0,0.0,0.0,9e-08
1531943925717070653,936,1531943925716751648,base_link,0.0985484435627,-0.114091848144,-0.730973968762,0.665543620998,1.0,0.0,0.0,0.0,1.0,0.0,0.0,0.0,1.0,0.430493205786,0.0190527774394,-0.144546106458,1.21846967915e-07,0.0,0.0,0.0,1.21846967915e-07,0.0,0.0,0.0,1.21846967915e-07,-0.2157463,0.3530394,9.12999115,9e-08,0.0,0.0,0.0,9e-08,0.0,0.0,0.0,9e-08
1531943926205481624,937,1531943926205081340,base_link,0.153828566992,-0.158707013821,-0.750253469278,0.623112018482,1.0,0.0,0.0,0.0,1.0,0.0,0.0,0.0,1.0,0.276866108179,-0.0260581579059,-0.252280414104,1.21846967915e-07,0.0,0.0,0.0,1.21846967915e-07,0.0,0.0,0.0,1.21846967915e-07,0.0392266,0.3334261,8.4533323,9e-08,0.0,0.0,0.0,9e-08,0.0,0.0,0.0,9e-08
1531943926626052807,938,1531943926625744298,base_link,0.191229354296,-0.213493651106,-0.771321689732,0.568255792703,1.0,0.0,0.0,0.0,1.0,0.0,0.0,0.0,1.0,0.257440060377,-0.136417239904,-0.214145451784,1.21846967915e-07,0.0,0.0,0.0,1.21846967915e-07,0.0,0.0,0.0,1.21846967915e-07,-0.0980665,0.42168595,9.91452315,9e-08,0.0,0.0,0.0,9e-08,0.0,0.0,0.0,9e-08
1531943927092819372,939,1531943927092581775,base_link,0.200317743822,-0.256829058349,-0.804827528868,0.496149458403,1.0,0.0,0.0,0.0,1.0,0.0,0.0,0.0,1.0,0.139960765839,-0.225199222565,-0.355322480202,1.21846967915e-07,0.0,0.0,0.0,1.21846967915e-07,0.0,0.0,0.0,1.21846967915e-07,-0.196133,0.4707192,9.09076455,9e-08,0.0,0.0,0.0,9e-08,0.0,0.0,0.0,9e-08
1531943927518104781,940,1531943927517767857,base_link,0.181239178796,-0.30680132573,-0.837088283526,0.415100604894,1.0,0.0,0.0,0.0,1.0,0.0,0.0,0.0,1.0,0.196466311812,-0.384083926678,-0.257224261761,1.21846967915e-07,0.0,0.0,0.0,1.21846967915e-07,0.0,0.0,0.0,1.21846967915e-07,-0.4707192,0.57859235,12.93497135,9e-08,0.0,0.0,0.0,9e-08,0.0,0.0,0.0,9e-08
1531943927833265471,941,1531943927832700677,base_link,0.159618078414,-0.345034423903,-0.855137038126,0.352440011052,1.0,0.0,0.0,0.0,1.0,0.0,0.0,0.0,1.0,0.0728614330292,-0.325966954231,-0.348194599152,1.21846967915e-07,0.0,0.0,0.0,1.21846967915e-07,0.0,0.0,0.0,1.21846967915e-07,-0.79433865,-0.1176798,12.38579895,9e-08,0.0,0.0,0.0,9e-08,0.0,0.0,0.0,9e-08
1531943928287948556,942,1531943928287628655,base_link,0.125377485179,-0.346522087489,-0.897800231839,0.241159019739,1.0,0.0,0.0,0.0,1.0,0.0,0.0,0.0,1.0,-0.182797268033,-0.305591464043,-0.471228957176,1.21846967915e-07,0.0,0.0,0.0,1.21846967915e-07,0.0,0.0,0.0,1.21846967915e-07,-0.6864655,0.18632635,12.3171524,9e-08,0.0,0.0,0.0,9e-08,0.0,0.0,0.0,9e-08
1531943928672292580,943,1531943928671850248,base_link,0.0930695972667,-0.339652875783,-0.927048183305,0.128668721401,1.0,0.0,0.0,0.0,1.0,0.0,0.0,0.0,1.0,0.0118754981086,-0.360628902912,-0.459054231644,1.21846967915e-07,0.0,0.0,0.0,1.21846967915e-07,0.0,0.0,0.0,1.21846967915e-07,-0.3726527,-0.0980665,15.0434011,9e-08,0.0,0.0,0.0,9e-08,0.0,0.0,0.0,9e-08
1531943929068944442,944,1531943929068643261,base_link,0.0486867593141,-0.313300569577,-0.947731428881,0.0357420100343,1.0,0.0,0.0,0.0,1.0,0.0,0.0,0.0,1.0,-0.312784254551,-0.340681165457,-0.335786312819,1.21846967915e-07,0.0,0.0,0.0,1.21846967915e-07,0.0,0.0,0.0,1.21846967915e-07,-0.3138128,-0.10787315,14.2000292,9e-08,0.0,0.0,0.0,9e-08,0.0,0.0,0.0,9e-08
1531943929366011858,945,1531943929365826996,base_link,0.0154755405878,-0.268528484488,-0.962884021032,-0.022523825247,1.0,0.0,0.0,0.0,1.0,0.0,0.0,0.0,1.0,-0.278241366148,-0.274679005146,-0.294839531183,1.21846967915e-07,0.0,0.0,0.0,1.21846967915e-07,0.0,0.0,0.0,1.21846967915e-07,-0.3530394,0.26477955,11.6699135,9e-08,0.0,0.0,0.0,9e-08,0.0,0.0,0.0,9e-08
1531943929831896367,946,1531943929828824880,base_link,-0.0228572484844,-0.181980809695,-0.978295603879,-0.0964273951015,1.0,0.0,0.0,0.0,1.0,0.0,0.0,0.0,1.0,-0.359703421593,-0.196821466088,-0.213067173958,1.21846967915e-07,0.0,0.0,0.0,1.21846967915e-07,0.0,0.0,0.0,1.21846967915e-07,-0.2549729,0.00980665,11.85623985,9e-08,0.0,0.0,0.0,9e-08,0.0,0.0,0.0,9e-08
1531943930207502538,947,1531943930207094414,base_link,-0.0370367268127,-0.0938650104169,-0.985265481411,-0.138092620466,1.0,0.0,0.0,0.0,1.0,0.0,0.0,0.0,1.0,-0.447447448969,-0.0951655581594,-0.141140565276,1.21846967915e-07,0.0,0.0,0.0,1.21846967915e-07,0.0,0.0,0.0,1.21846967915e-07,-0.26477955,-0.16671305,11.15016105,9e-08,0.0,0.0,0.0,9e-08,0.0,0.0,0.0,9e-08
1531943930508567035,948,1531943930508273534,base_link,-0.0340492853722,-0.0369030931031,-0.985889316272,-0.159690525535,1.0,0.0,0.0,0.0,1.0,0.0,0.0,0.0,1.0,-0.363394886255,-0.026045255363,-0.109402149916,1.21846967915e-07,0.0,0.0,0.0,1.21846967915e-07,0.0,0.0,0.0,1.21846967915e-07,-0.196133,-0.06864655,9.63993695,9e-08,0.0,0.0,0.0,9e-08,0.0,0.0,0.0,9e-08
1531943930856692635,949,1531943930856367966,base_link,-0.0260269941489,0.0103077868771,-0.984720087296,-0.171879884747,1.0,0.0,0.0,0.0,1.0,0.0,0.0,0.0,1.0,-0.29700499773,0.0297952741385,0.000319356564432,1.21846967915e-07,0.0,0.0,0.0,1.21846967915e-07,0.0,0.0,0.0,1.21846967915e-07,-0.22555295,-0.0980665,8.95347145,9e-08,0.0,0.0,0.0,9e-08,0.0,0.0,0.0,9e-08
1531943931212998150,950,1531943931212703209,base_link,-0.00886838517691,0.0581928740006,-0.984385462083,-0.165892143271,1.0,0.0,0.0,0.0,1.0,0.0,0.0,0.0,1.0,-0.265203297138,0.0659858584404,0.087988063693,1.21846967915e-07,0.0,0.0,0.0,1.21846967915e-07,0.0,0.0,0.0,1.21846967915e-07,-0.14709975,-0.30400615,9.11037785,9e-08,0.0,0.0,0.0,9e-08,0.0,0.0,0.0,9e-08
1531943931592305728,951,1531943931592008739,base_link,0.0102342605573,0.0841877182429,-0.985537006227,-0.146712294524,1.0,0.0,0.0,0.0,1.0,0.0,0.0,0.0,1.0,-0.195297896862,0.0738961696625,0.140432626009,1.21846967915e-07,0.0,0.0,0.0,1.21846967915e-07,0.0,0.0,0.0,1.21846967915e-07,-0.12748645,0.02941995,8.11009955,9e-08,0.0,0.0,0.0,9e-08,0.0,0.0,0.0,9e-08
1531943931954888043,952,1531943931954496495,base_link,0.0260765587096,0.113347281818,-0.985222669469,-0.125732646333,1.0,0.0,0.0,0.0,1.0,0.0,0.0,0.0,1.0,-0.100404821336,0.0444709956646,0.09838206321,1.21846967915e-07,0.0,0.0,0.0,1.21846967915e-07,0.0,0.0,0.0,1.21846967915e-07,-0.02941995,1.01962204704e-15,8.32584585,9e-08,0.0,0.0,0.0,9e-08,0.0,0.0,0.0,9e-08
1531943932402984403,953,1531943932402328217,base_link,0.0302855250705,0.120527876154,-0.986967756764,-0.102227516598,1.0,0.0,0.0,0.0,1.0,0.0,0.0,0.0,1.0,0.130732104182,0.0378845334053,0.163031846285,1.21846967915e-07,0.0,0.0,0.0,1.21846967915e-07,0.0,0.0,0.0,1.21846967915e-07,0.3530394,-0.3138128,9.93413645,9e-08,0.0,0.0,0.0,9e-08,0.0,0.0,0.0,9e-08
1531943932844673855,954,1531943932844323394,base_link,0.0372179022039,0.0812977882427,-0.994525504763,-0.0540788106236,1.0,0.0,0.0,0.0,1.0,0.0,0.0,0.0,1.0,0.145631581545,-0.0267253275961,0.25133767724,1.21846967915e-07,0.0,0.0,0.0,1.21846967915e-07,0.0,0.0,0.0,1.21846967915e-07,0.0588399,-0.196133,8.87501825,9e-08,0.0,0.0,0.0,9e-08,0.0,0.0,0.0,9e-08
1531943933169584157,955,1531943933167840975,base_link,0.0264715500364,0.0665948891855,-0.997276630827,-0.0174269727767,1.0,0.0,0.0,0.0,1.0,0.0,0.0,0.0,1.0,0.0381641387939,-0.10633661598,0.172631502151,1.21846967915e-07,0.0,0.0,0.0,1.21846967915e-07,0.0,0.0,0.0,1.21846967915e-07,0.16671305,0.08825985,10.01258965,9e-08,0.0,0.0,0.0,9e-08,0.0,0.0,0.0,9e-08
1531943933687158222,956,1531943933684823847,base_link,-0.00423171893495,0.0524651209566,-0.998603976926,0.00442729099847,1.0,0.0,0.0,0.0,1.0,0.0,0.0,0.0,1.0,0.270677298307,-0.135122597218,-0.0110060572624,1.21846967915e-07,0.0,0.0,0.0,1.21846967915e-07,0.0,0.0,0.0,1.21846967915e-07,0.588399,0.0392266,12.1406327,9e-08,0.0,0.0,0.0,9e-08,0.0,0.0,0.0,9e-08
1531943933985605925,957,1531943933985138954,base_link,-0.0246829576202,0.0176894185357,-0.999520690633,0.00601872674259,1.0,0.0,0.0,0.0,1.0,0.0,0.0,0.0,1.0,0.139546856284,-0.0850381553173,-0.0193546358496,1.21846967915e-07,0.0,0.0,0.0,1.21846967915e-07,0.0,0.0,0.0,1.21846967915e-07,0.59820565,0.28439285,11.75817335,9e-08,0.0,0.0,0.0,9e-08,0.0,0.0,0.0,9e-08
1531943934363099997,958,1531943934362662594,base_link,-0.0333140180909,-0.0102560385135,-0.999369856021,-0.00669930958936,1.0,0.0,0.0,0.0,1.0,0.0,0.0,0.0,1.0,0.304981052876,-0.0371850393713,-0.110610276461,1.21846967915e-07,0.0,0.0,0.0,1.21846967915e-07,0.0,0.0,0.0,1.21846967915e-07,0.02941995,0.0392266,9.75761675,9e-08,0.0,0.0,0.0,9e-08,0.0,0.0,0.0,9e-08
1531943934727037284,959,1531943934726564521,base_link,-0.0488251134775,-0.0689426802781,-0.996231892459,-0.0196222215287,1.0,0.0,0.0,0.0,1.0,0.0,0.0,0.0,1.0,0.219405412674,-0.077671572566,-0.0541960671544,1.21846967915e-07,0.0,0.0,0.0,1.21846967915e-07,0.0,0.0,0.0,1.21846967915e-07,0.12748645,0.00980665,9.99297635,9e-08,0.0,0.0,0.0,9e-08,0.0,0.0,0.0,9e-08
1531943935017115765,960,1531943935016804729,base_link,-0.0602616865933,-0.0978960593243,-0.992918778414,-0.0299531329072,1.0,0.0,0.0,0.0,1.0,0.0,0.0,0.0,1.0,0.0273424834013,-0.0719436258078,-0.112674109638,1.21846967915e-07,0.0,0.0,0.0,1.21846967915e-07,0.0,0.0,0.0,1.21846967915e-07,0.22555295,0.2745862,10.22833595,9e-08,0.0,0.0,0.0,9e-08,0.0,0.0,0.0,9e-08
1531943935322606247,961,1531943935322056877,base_link,-0.0646257585879,-0.0978292418154,-0.991668046949,-0.053361366482,1.0,0.0,0.0,0.0,1.0,0.0,0.0,0.0,1.0,-0.120134681463,-0.0206328183413,-0.154173970222,1.21846967915e-07,0.0,0.0,0.0,1.21846967915e-07,0.0,0.0,0.0,1.21846967915e-07,0.22555295,-0.04903325,9.5516771,9e-08,0.0,0.0,0.0,9e-08,0.0,0.0,0.0,9e-08
1531943935784418701,962,1531943935784171568,base_link,-0.0579024506571,-0.0877461722862,-0.990227769603,-0.0916344900378,1.0,0.0,0.0,0.0,1.0,0.0,0.0,0.0,1.0,-0.105482794344,0.0369824767113,-0.173357024789,1.21846967915e-07,0.0,0.0,0.0,1.21846967915e-07,0.0,0.0,0.0,1.21846967915e-07,0.38245935,0.0196133,9.16921775,9e-08,0.0,0.0,0.0,9e-08,0.0,0.0,0.0,9e-08
1531943936231123124,963,1531943936230607258,base_link,-0.0404676391991,-0.0714259436476,-0.987903418867,-0.131558123057,1.0,0.0,0.0,0.0,1.0,0.0,0.0,0.0,1.0,-0.158489748836,0.0704903677106,-0.150686502457,1.21846967915e-07,0.0,0.0,0.0,1.21846967915e-07,0.0,0.0,0.0,1.21846967915e-07,0.42168595,-0.04903325,8.52197885,9e-08,0.0,0.0,0.0,9e-08,0.0,0.0,0.0,9e-08
1531943936735328481,964,1531943936734922150,base_link,-0.0161117780334,-0.0343553782173,-0.985322977112,-0.166429412579,1.0,0.0,0.0,0.0,1.0,0.0,0.0,0.0,1.0,-0.262868255377,0.0471331402659,-0.127434879541,1.21846967915e-07,0.0,0.0,0.0,1.21846967915e-07,0.0,0.0,0.0,1.21846967915e-07,0.67665885,1.08927820573e-15,8.89463155,9e-08,0.0,0.0,0.0,9e-08,0.0,0.0,0.0,9e-08
1531943937193168152,965,1531943937192365504,base_link,0.00840617372517,-0.0038731278934,-0.984887633966,-0.172947054281,1.0,0.0,0.0,0.0,1.0,0.0,0.0,0.0,1.0,-0.116299651563,0.044038169086,0.0718565806746,1.21846967915e-07,0.0,0.0,0.0,1.21846967915e-07,0.0,0.0,0.0,1.21846967915e-07,0.6276256,-0.14709975,8.89463155,9e-08,0.0,0.0,0.0,9e-08,0.0,0.0,0.0,9e-08
1531943937678770094,966,1531943937678430802,base_link,0.00584078460631,0.0399782255662,-0.987417964347,-0.152883584469,1.0,0.0,0.0,0.0,1.0,0.0,0.0,0.0,1.0,-0.230741918087,-0.0969942808151,0.0656908452511,1.21846967915e-07,0.0,0.0,0.0,1.21846967915e-07,0.0,0.0,0.0,1.21846967915e-07,0.75511205,-0.1372931,10.5323421,9e-08,0.0,0.0,0.0,9e-08,0.0,0.0,0.0,9e-08
1531943937911317861,967,1531943937911042344,base_link,0.00454587266085,0.0623400016532,-0.987903905961,-0.141911704316,1.0,0.0,0.0,0.0,1.0,0.0,0.0,0.0,1.0,-0.130174309015,-0.0142051838338,0.110710285604,1.21846967915e-07,0.0,0.0,0.0,1.21846967915e-07,0.0,0.0,0.0,1.21846967915e-07,0.67665885,-0.16671305,10.26756255,9e-08,0.0,0.0,0.0,9e-08,0.0,0.0,0.0,9e-08
1531943938295090667,968,1531943938294860366,base_link,-0.00486834798225,0.0819005122732,-0.99067611684,-0.10876321437,1.0,0.0,0.0,0.0,1.0,0.0,0.0,0.0,1.0,0.0130795668811,-0.133305162191,0.220451831818,1.21846967915e-07,0.0,0.0,0.0,1.21846967915e-07,0.0,0.0,0.0,1.21846967915e-07,0.588399,-0.26477955,10.36562905,9e-08,0.0,0.0,0.0,9e-08,0.0,0.0,0.0,9e-08
1531943938662241121,969,1531943938661994244,base_link,-0.0292477222051,0.0830798988507,-0.99412204456,-0.0629576180643,1.0,0.0,0.0,0.0,1.0,0.0,0.0,0.0,1.0,0.017541244626,-0.125120773911,0.238384246826,1.21846967915e-07,0.0,0.0,0.0,1.21846967915e-07,0.0,0.0,0.0,1.21846967915e-07,1.0002783,-0.2745862,11.15016105,9e-08,0.0,0.0,0.0,9e-08,0.0,0.0,0.0,9e-08
1531943939016754364,970,1531943939016092354,base_link,-0.0301052479951,0.0726150914078,-0.996619379796,-0.0238858610441,1.0,0.0,0.0,0.0,1.0,0.0,0.0,0.0,1.0,0.11648196727,0.0735410675406,0.231288596988,1.21846967915e-07,0.0,0.0,0.0,1.21846967915e-07,0.0,0.0,0.0,1.21846967915e-07,0.7060788,0.1765197,9.80665,9e-08,0.0,0.0,0.0,9e-08,0.0,0.0,0.0,9e-08
1531943939427996744,971,1531943939427626123,base_link,-0.039764408629,0.0771303132399,-0.996042666835,0.0192018861279,1.0,0.0,0.0,0.0,1.0,0.0,0.0,0.0,1.0,-0.0473441034555,-0.161020308733,0.167736411095,1.21846967915e-07,0.0,0.0,0.0,1.21846967915e-07,0.0,0.0,0.0,1.21846967915e-07,0.8433719,0.26477955,9.8851032,9e-08,0.0,0.0,0.0,9e-08,0.0,0.0,0.0,9e-08
1531943939770763393,972,1531943939770403205,base_link,-0.0513170158393,0.0947399937714,-0.9932335763,0.0433354401921,1.0,0.0,0.0,0.0,1.0,0.0,0.0,0.0,1.0,-0.00606842525303,0.0479601584375,0.0868492946029,1.21846967915e-07,0.0,0.0,0.0,1.21846967915e-07,0.0,0.0,0.0,1.21846967915e-07,0.95124505,0.196133,10.48330885,9e-08,0.0,0.0,0.0,9e-08,0.0,0.0,0.0,9e-08
1531943940263269787,973,1531943940262482532,base_link,-0.040771983279,0.013962734677,-0.996266456682,0.0748053120385,1.0,0.0,0.0,0.0,1.0,0.0,0.0,0.0,1.0,0.443867266178,-0.112842254341,0.162693709135,1.21846967915e-07,0.0,0.0,0.0,1.21846967915e-07,0.0,0.0,0.0,1.21846967915e-07,0.7256921,0.3138128,8.8063717,9e-08,0.0,0.0,0.0,9e-08,0.0,0.0,0.0,9e-08
1531943940730370978,974,1531943940729988486,base_link,-0.05789722241,-0.0174518846623,-0.99369865915,0.0943732915685,1.0,0.0,0.0,0.0,1.0,0.0,0.0,0.0,1.0,0.149754479527,0.0578287355602,-0.0168053545058,1.21846967915e-07,0.0,0.0,0.0,1.21846967915e-07,0.0,0.0,0.0,1.21846967915e-07,0.980665,0.3334261,9.80665,9e-08,0.0,0.0,0.0,9e-08,0.0,0.0,0.0,9e-08
1531943941071679822,975,1531943941069028137,base_link,-0.0258377535519,-0.0551070975997,-0.99397819971,0.0911205618252,1.0,0.0,0.0,0.0,1.0,0.0,0.0,0.0,1.0,0.229043468833,0.173024103045,-0.0616397447884,1.21846967915e-07,0.0,0.0,0.0,1.21846967915e-07,0.0,0.0,0.0,1.21846967915e-07,0.71588545,0.36284605,8.7475318,9e-08,0.0,0.0,0.0,9e-08,0.0,0.0,0.0,9e-08
1531943941491996642,976,1531943941491756261,base_link,-0.0254326148773,-0.0812568650057,-0.994152491829,0.0664178212519,1.0,0.0,0.0,0.0,1.0,0.0,0.0,0.0,1.0,0.0538434386253,-0.234793886542,-0.195660233498,1.21846967915e-07,0.0,0.0,0.0,1.21846967915e-07,0.0,0.0,0.0,1.21846967915e-07,1.176798,0.48052585,10.54214875,9e-08,0.0,0.0,0.0,9e-08,0.0,0.0,0.0,9e-08
1531943942067681887,977,1531943942067423362,base_link,-0.035190258265,-0.0936192795524,-0.994974147509,-0.00484994927092,1.0,0.0,0.0,0.0,1.0,0.0,0.0,0.0,1.0,0.0368930995464,-0.0560329146683,-0.316570013762,1.21846967915e-07,0.0,0.0,0.0,1.21846967915e-07,0.0,0.0,0.0,1.21846967915e-07,0.99047165,0.196133,10.44408225,9e-08,0.0,0.0,0.0,9e-08,0.0,0.0,0.0,9e-08
1531943942472051935,978,1531943942471836993,base_link,-0.0467658549164,-0.12076092215,-0.99001088865,-0.0557511869865,1.0,0.0,0.0,0.0,1.0,0.0,0.0,0.0,1.0,0.146542176604,-0.159355133772,-0.158168762922,1.21846967915e-07,0.0,0.0,0.0,1.21846967915e-07,0.0,0.0,0.0,1.21846967915e-07,0.95124505,0.4511059,10.7677017,9e-08,0.0,0.0,0.0,9e-08,0.0,0.0,0.0,9e-08
1531943942834921809,979,1531943942834588404,base_link,-0.0766158244166,-0.102989580314,-0.988213018121,-0.0834157815568,1.0,0.0,0.0,0.0,1.0,0.0,0.0,0.0,1.0,0.0367974378169,-0.132573351264,-0.143826901913,1.21846967915e-07,0.0,0.0,0.0,1.21846967915e-07,0.0,0.0,0.0,1.21846967915e-07,0.7060788,0.36284605,9.3947707,9e-08,0.0,0.0,0.0,9e-08,0.0,0.0,0.0,9e-08
1531943943196955437,980,1531943943196551185,base_link,-0.119819443002,-0.0769971690541,-0.98136753974,-0.128967007334,1.0,0.0,0.0,0.0,1.0,0.0,0.0,0.0,1.0,-0.400856375694,-0.182052046061,-0.221061423421,1.21846967915e-07,0.0,0.0,0.0,1.21846967915e-07,0.0,0.0,0.0,1.21846967915e-07,1.12776475,0.22555295,10.75789505,9e-08,0.0,0.0,0.0,9e-08,0.0,0.0,0.0,9e-08
