time,.header.seq,.header.stamp.secs,.header.stamp.nsecs,.header.frame_id,.orientation.x,.orientation.y,.orientation.z,.orientation.w,.orientation_covariance,.angular_velocity.x,.angular_velocity.y,.angular_velocity.z,.angular_velocity_covariance,.linear_acceleration.x,.linear_acceleration.y,.linear_acceleration.z,.linear_acceleration_covariance
2018/07/18/15:56:50.879493,2310,1531943810,878600982,base_link,0.0,0.0,0.0,0.0,"(-1.0, 0.0, 0.0, 0.0, 0.0, 0.0, 0.0, 0.0, 0.0)",2.018,-0.293,0.212,"(1.2184696791468346e-07, 0.0, 0.0, 0.0, 1.2184696791468346e-07, 0.0, 0.0, 0.0, 1.2184696791468346e-07)",1.79461695,-0.1372931,14.0823494,"(8.999999999999999e-08, 0.0, 0.0, 0.0, 8.999999999999999e-08, 0.0, 0.0, 0.0, 8.999999999999999e-08)"
2018/07/18/15:56:50.955271,2311,1531943810,954521707,base_link,0.0,0.0,0.0,0.0,"(-1.0, 0.0, 0.0, 0.0, 0.0, 0.0, 0.0, 0.0, 0.0)",2.056,-0.166,0.196,"(1.2184696791468346e-07, 0.0, 0.0, 0.0, 1.2184696791468346e-07, 0.0, 0.0, 0.0, 1.2184696791468346e-07)",1.8240369,-0.32361945,14.81784815,"(8.999999999999999e-08, 0.0, 0.0, 0.0, 8.999999999999999e-08, 0.0, 0.0, 0.0, 8.999999999999999e-08)"
2018/07/18/15:56:51.062405,2312,1531943811,58928693,base_link,0.0,0.0,0.0,0.0,"(-1.0, 0.0, 0.0, 0.0, 0.0, 0.0, 0.0, 0.0, 0.0)",1.89,-0.127,0.242,"(1.2184696791468346e-07, 0.0, 0.0, 0.0, 1.2184696791468346e-07, 0.0, 0.0, 0.0, 1.2184696791468346e-07)",1.14737805,0.1569064,14.513842,"(8.999999999999999e-08, 0.0, 0.0, 0.0, 8.999999999999999e-08, 0.0, 0.0, 0.0, 8.999999999999999e-08)"
2018/07/18/15:56:51.149600,2313,1531943811,149100183,base_link,0.0,0.0,0.0,0.0,"(-1.0, 0.0, 0.0, 0.0, 0.0, 0.0, 0.0, 0.0, 0.0)",1.746,-0.199,0.22,"(1.2184696791468346e-07, 0.0, 0.0, 0.0, 1.2184696791468346e-07, 0.0, 0.0, 0.0, 1.2184696791468346e-07)",0.93163175,0.1372931,14.0431228,"(8.999999999999999e-08, 0.0, 0.0, 0.0, 8.999999999999999e-08, 0.0, 0.0, 0.0, 8.999999999999999e-08)"
2018/07/18/15:56:51.240831,2314,1531943811,238598369,base_link,0.0,0.0,0.0,0.0,"(-1.0, 0.0, 0.0, 0.0, 0.0, 0.0, 0.0, 0.0, 0.0)",1.285,-0.207,0.163,"(1.2184696791468346e-07, 0.0, 0.0, 0.0, 1.2184696791468346e-07, 0.0, 0.0, 0.0, 1.2184696791468346e-07)",0.32361945,0.42168595,12.18966595,"(8.999999999999999e-08, 0.0, 0.0, 0.0, 8.999999999999999e-08, 0.0, 0.0, 0.0, 8.999999999999999e-08)"
2018/07/18/15:56:51.360518,2315,1531943811,359848342,base_link,0.0,0.0,0.0,0.0,"(-1.0, 0.0, 0.0, 0.0, 0.0, 0.0, 0.0, 0.0, 0.0)",0.701,-0.214,0.095,"(1.2184696791468346e-07, 0.0, 0.0, 0.0, 1.2184696791468346e-07, 0.0, 0.0, 0.0, 1.2184696791468346e-07)",0.06864655,0.3530394,11.83662655,"(8.999999999999999e-08, 0.0, 0.0, 0.0, 8.999999999999999e-08, 0.0, 0.0, 0.0, 8.999999999999999e-08)"
2018/07/18/15:56:51.483019,2316,1531943811,476068587,base_link,0.0,0.0,0.0,0.0,"(-1.0, 0.0, 0.0, 0.0, 0.0, 0.0, 0.0, 0.0, 0.0)",-1.092,-0.217,0.179,"(1.2184696791468346e-07, 0.0, 0.0, 0.0, 1.2184696791468346e-07, 0.0, 0.0, 0.0, 1.2184696791468346e-07)",-0.2157463,0.6864655,12.99381125,"(8.999999999999999e-08, 0.0, 0.0, 0.0, 8.999999999999999e-08, 0.0, 0.0, 0.0, 8.999999999999999e-08)"
2018/07/18/15:56:51.574013,2317,1531943811,573097589,base_link,0.0,0.0,0.0,0.0,"(-1.0, 0.0, 0.0, 0.0, 0.0, 0.0, 0.0, 0.0, 0.0)",-1.54,-0.077,0.106,"(1.2184696791468346e-07, 0.0, 0.0, 0.0, 1.2184696791468346e-07, 0.0, 0.0, 0.0, 1.2184696791468346e-07)",-0.30400615,0.6080123,12.56231865,"(8.999999999999999e-08, 0.0, 0.0, 0.0, 8.999999999999999e-08, 0.0, 0.0, 0.0, 8.999999999999999e-08)"
2018/07/18/15:56:51.669873,2318,1531943811,668589491,base_link,0.0,0.0,0.0,0.0,"(-1.0, 0.0, 0.0, 0.0, 0.0, 0.0, 0.0, 0.0, 0.0)",-1.432,0.029,0.021,"(1.2184696791468346e-07, 0.0, 0.0, 0.0, 1.2184696791468346e-07, 0.0, 0.0, 0.0, 1.2184696791468346e-07)",-0.14709975,0.40207265,11.8856598,"(8.999999999999999e-08, 0.0, 0.0, 0.0, 8.999999999999999e-08, 0.0, 0.0, 0.0, 8.999999999999999e-08)"
2018/07/18/15:56:51.773026,2319,1531943811,772196265,base_link,0.0,0.0,0.0,0.0,"(-1.0, 0.0, 0.0, 0.0, 0.0, 0.0, 0.0, 0.0, 0.0)",-1.114,0.063,-0.02,"(1.2184696791468346e-07, 0.0, 0.0, 0.0, 1.2184696791468346e-07, 0.0, 0.0, 0.0, 1.2184696791468346e-07)",-0.1176798,0.57859235,11.8268199,"(8.999999999999999e-08, 0.0, 0.0, 0.0, 8.999999999999999e-08, 0.0, 0.0, 0.0, 8.999999999999999e-08)"
2018/07/18/15:56:51.879462,2320,1531943811,878873240,base_link,0.0,0.0,0.0,0.0,"(-1.0, 0.0, 0.0, 0.0, 0.0, 0.0, 0.0, 0.0, 0.0)",-0.978,0.056,-0.051,"(1.2184696791468346e-07, 0.0, 0.0, 0.0, 1.2184696791468346e-07, 0.0, 0.0, 0.0, 1.2184696791468346e-07)",0.20593965,0.1569064,10.1204628,"(8.999999999999999e-08, 0.0, 0.0, 0.0, 8.999999999999999e-08, 0.0, 0.0, 0.0, 8.999999999999999e-08)"
2018/07/18/15:56:51.975903,2321,1531943811,974639890,base_link,0.0,0.0,0.0,0.0,"(-1.0, 0.0, 0.0, 0.0, 0.0, 0.0, 0.0, 0.0, 0.0)",-0.724,0.046,-0.098,"(1.2184696791468346e-07, 0.0, 0.0, 0.0, 1.2184696791468346e-07, 0.0, 0.0, 0.0, 1.2184696791468346e-07)",0.2941995,-0.18632635,9.89490985,"(8.999999999999999e-08, 0.0, 0.0, 0.0, 8.999999999999999e-08, 0.0, 0.0, 0.0, 8.999999999999999e-08)"
2018/07/18/15:56:52.071719,2322,1531943812,70572523,base_link,0.0,0.0,0.0,0.0,"(-1.0, 0.0, 0.0, 0.0, 0.0, 0.0, 0.0, 0.0, 0.0)",-0.752,-0.027,0.056,"(1.2184696791468346e-07, 0.0, 0.0, 0.0, 1.2184696791468346e-07, 0.0, 0.0, 0.0, 1.2184696791468346e-07)",0.83356525,-0.1372931,10.87557485,"(8.999999999999999e-08, 0.0, 0.0, 0.0, 8.999999999999999e-08, 0.0, 0.0, 0.0, 8.999999999999999e-08)"
2018/07/18/15:56:52.174065,2323,1531943812,173523276,base_link,0.0,0.0,0.0,0.0,"(-1.0, 0.0, 0.0, 0.0, 0.0, 0.0, 0.0, 0.0, 0.0)",-0.56,-0.01,0.117,"(1.2184696791468346e-07, 0.0, 0.0, 0.0, 1.2184696791468346e-07, 0.0, 0.0, 0.0, 1.2184696791468346e-07)",1.3337044,-0.59820565,9.62032365,"(8.999999999999999e-08, 0.0, 0.0, 0.0, 8.999999999999999e-08, 0.0, 0.0, 0.0, 8.999999999999999e-08)"
2018/07/18/15:56:52.280998,2324,1531943812,280339708,base_link,0.0,0.0,0.0,0.0,"(-1.0, 0.0, 0.0, 0.0, 0.0, 0.0, 0.0, 0.0, 0.0)",-0.293,-0.062,0.199,"(1.2184696791468346e-07, 0.0, 0.0, 0.0, 1.2184696791468346e-07, 0.0, 0.0, 0.0, 1.2184696791468346e-07)",1.765197,-0.392266,7.6099604,"(8.999999999999999e-08, 0.0, 0.0, 0.0, 8.999999999999999e-08, 0.0, 0.0, 0.0, 8.999999999999999e-08)"
2018/07/18/15:56:52.378781,2325,1531943812,378159967,base_link,0.0,0.0,0.0,0.0,"(-1.0, 0.0, 0.0, 0.0, 0.0, 0.0, 0.0, 0.0, 0.0)",-0.199,-0.127,0.259,"(1.2184696791468346e-07, 0.0, 0.0, 0.0, 1.2184696791468346e-07, 0.0, 0.0, 0.0, 1.2184696791468346e-07)",1.372931,-0.40207265,8.12971285,"(8.999999999999999e-08, 0.0, 0.0, 0.0, 8.999999999999999e-08, 0.0, 0.0, 0.0, 8.999999999999999e-08)"
2018/07/18/15:56:52.466592,2326,1531943812,465227754,base_link,0.0,0.0,0.0,0.0,"(-1.0, 0.0, 0.0, 0.0, 0.0, 0.0, 0.0, 0.0, 0.0)",-0.22,-0.197,0.304,"(1.2184696791468346e-07, 0.0, 0.0, 0.0, 1.2184696791468346e-07, 0.0, 0.0, 0.0, 1.2184696791468346e-07)",0.83356525,-0.14709975,7.73744685,"(8.999999999999999e-08, 0.0, 0.0, 0.0, 8.999999999999999e-08, 0.0, 0.0, 0.0, 8.999999999999999e-08)"
2018/07/18/15:56:52.573713,2327,1531943812,572784881,base_link,0.0,0.0,0.0,0.0,"(-1.0, 0.0, 0.0, 0.0, 0.0, 0.0, 0.0, 0.0, 0.0)",-0.248,-0.268,0.297,"(1.2184696791468346e-07, 0.0, 0.0, 0.0, 1.2184696791468346e-07, 0.0, 0.0, 0.0, 1.2184696791468346e-07)",0.91201845,-0.38245935,10.7088618,"(8.999999999999999e-08, 0.0, 0.0, 0.0, 8.999999999999999e-08, 0.0, 0.0, 0.0, 8.999999999999999e-08)"
2018/07/18/15:56:52.653953,2328,1531943812,653361967,base_link,0.0,0.0,0.0,0.0,"(-1.0, 0.0, 0.0, 0.0, 0.0, 0.0, 0.0, 0.0, 0.0)",-0.346,-0.325,0.304,"(1.2184696791468346e-07, 0.0, 0.0, 0.0, 1.2184696791468346e-07, 0.0, 0.0, 0.0, 1.2184696791468346e-07)",1.08853815,-0.1372931,11.24822755,"(8.999999999999999e-08, 0.0, 0.0, 0.0, 8.999999999999999e-08, 0.0, 0.0, 0.0, 8.999999999999999e-08)"
2018/07/18/15:56:52.783997,2329,1531943812,782943421,base_link,0.0,0.0,0.0,0.0,"(-1.0, 0.0, 0.0, 0.0, 0.0, 0.0, 0.0, 0.0, 0.0)",-0.283,-0.294,0.311,"(1.2184696791468346e-07, 0.0, 0.0, 0.0, 1.2184696791468346e-07, 0.0, 0.0, 0.0, 1.2184696791468346e-07)",1.81423025,-0.2745862,11.05209455,"(8.999999999999999e-08, 0.0, 0.0, 0.0, 8.999999999999999e-08, 0.0, 0.0, 0.0, 8.999999999999999e-08)"
2018/07/18/15:56:52.857731,2330,1531943812,857131468,base_link,0.0,0.0,0.0,0.0,"(-1.0, 0.0, 0.0, 0.0, 0.0, 0.0, 0.0, 0.0, 0.0)",-0.233,-0.343,0.323,"(1.2184696791468346e-07, 0.0, 0.0, 0.0, 1.2184696791468346e-07, 0.0, 0.0, 0.0, 1.2184696791468346e-07)",2.73605535,-0.6276256,12.6113519,"(8.999999999999999e-08, 0.0, 0.0, 0.0, 8.999999999999999e-08, 0.0, 0.0, 0.0, 8.999999999999999e-08)"
2018/07/18/15:56:52.978588,2331,1531943812,977891050,base_link,0.0,0.0,0.0,0.0,"(-1.0, 0.0, 0.0, 0.0, 0.0, 0.0, 0.0, 0.0, 0.0)",0.033,-0.477,0.36,"(1.2184696791468346e-07, 0.0, 0.0, 0.0, 1.2184696791468346e-07, 0.0, 0.0, 0.0, 1.2184696791468346e-07)",3.2950344,-0.57859235,13.8862164,"(8.999999999999999e-08, 0.0, 0.0, 0.0, 8.999999999999999e-08, 0.0, 0.0, 0.0, 8.999999999999999e-08)"
2018/07/18/15:56:53.086382,2332,1531943813,85926701,base_link,0.0,0.0,0.0,0.0,"(-1.0, 0.0, 0.0, 0.0, 0.0, 0.0, 0.0, 0.0, 0.0)",-0.035,-0.478,0.411,"(1.2184696791468346e-07, 0.0, 0.0, 0.0, 1.2184696791468346e-07, 0.0, 0.0, 0.0, 1.2184696791468346e-07)",3.3931009,-0.08825985,14.8864947,"(8.999999999999999e-08, 0.0, 0.0, 0.0, 8.999999999999999e-08, 0.0, 0.0, 0.0, 8.999999999999999e-08)"
2018/07/18/15:56:53.150456,2333,1531943813,149696451,base_link,0.0,0.0,0.0,0.0,"(-1.0, 0.0, 0.0, 0.0, 0.0, 0.0, 0.0, 0.0, 0.0)",-0.139,-0.516,0.409,"(1.2184696791468346e-07, 0.0, 0.0, 0.0, 1.2184696791468346e-07, 0.0, 0.0, 0.0, 1.2184696791468346e-07)",3.12832135,0.4314926,15.52392695,"(8.999999999999999e-08, 0.0, 0.0, 0.0, 8.999999999999999e-08, 0.0, 0.0, 0.0, 8.999999999999999e-08)"
2018/07/18/15:56:53.324757,2334,1531943813,323819839,base_link,0.0,0.0,0.0,0.0,"(-1.0, 0.0, 0.0, 0.0, 0.0, 0.0, 0.0, 0.0, 0.0)",-0.143,-0.56,0.307,"(1.2184696791468346e-07, 0.0, 0.0, 0.0, 1.2184696791468346e-07, 0.0, 0.0, 0.0, 1.2184696791468346e-07)",3.57942725,-0.02941995,18.4757286,"(8.999999999999999e-08, 0.0, 0.0, 0.0, 8.999999999999999e-08, 0.0, 0.0, 0.0, 8.999999999999999e-08)"
2018/07/18/15:56:53.382457,2335,1531943813,380956201,base_link,0.0,0.0,0.0,0.0,"(-1.0, 0.0, 0.0, 0.0, 0.0, 0.0, 0.0, 0.0, 0.0)",-0.087,-0.53,0.29,"(1.2184696791468346e-07, 0.0, 0.0, 0.0, 1.2184696791468346e-07, 0.0, 0.0, 0.0, 1.2184696791468346e-07)",3.4323275,-0.196133,17.52448355,"(8.999999999999999e-08, 0.0, 0.0, 0.0, 8.999999999999999e-08, 0.0, 0.0, 0.0, 8.999999999999999e-08)"
2018/07/18/15:56:53.446607,2336,1531943813,445749810,base_link,0.0,0.0,0.0,0.0,"(-1.0, 0.0, 0.0, 0.0, 0.0, 0.0, 0.0, 0.0, 0.0)",0.128,-0.558,0.301,"(1.2184696791468346e-07, 0.0, 0.0, 0.0, 1.2184696791468346e-07, 0.0, 0.0, 0.0, 1.2184696791468346e-07)",3.18716125,-0.20593965,15.54354025,"(8.999999999999999e-08, 0.0, 0.0, 0.0, 8.999999999999999e-08, 0.0, 0.0, 0.0, 8.999999999999999e-08)"
2018/07/18/15:56:53.569952,2337,1531943813,569256337,base_link,0.0,0.0,0.0,0.0,"(-1.0, 0.0, 0.0, 0.0, 0.0, 0.0, 0.0, 0.0, 0.0)",0.043,-0.654,0.326,"(1.2184696791468346e-07, 0.0, 0.0, 0.0, 1.2184696791468346e-07, 0.0, 0.0, 0.0, 1.2184696791468346e-07)",3.4715541,-0.6276256,18.5345685,"(8.999999999999999e-08, 0.0, 0.0, 0.0, 8.999999999999999e-08, 0.0, 0.0, 0.0, 8.999999999999999e-08)"
2018/07/18/15:56:53.675594,2338,1531943813,671795771,base_link,0.0,0.0,0.0,0.0,"(-1.0, 0.0, 0.0, 0.0, 0.0, 0.0, 0.0, 0.0, 0.0)",0.12,-0.631,0.407,"(1.2184696791468346e-07, 0.0, 0.0, 0.0, 1.2184696791468346e-07, 0.0, 0.0, 0.0, 1.2184696791468346e-07)",3.40290755,-0.4707192,18.2992089,"(8.999999999999999e-08, 0.0, 0.0, 0.0, 8.999999999999999e-08, 0.0, 0.0, 0.0, 8.999999999999999e-08)"
2018/07/18/15:56:53.844578,2339,1531943813,843833329,base_link,0.0,0.0,0.0,0.0,"(-1.0, 0.0, 0.0, 0.0, 0.0, 0.0, 0.0, 0.0, 0.0)",0.12,-0.619,0.437,"(1.2184696791468346e-07, 0.0, 0.0, 0.0, 1.2184696791468346e-07, 0.0, 0.0, 0.0, 1.2184696791468346e-07)",3.0596748,-0.16671305,16.03387275,"(8.999999999999999e-08, 0.0, 0.0, 0.0, 8.999999999999999e-08, 0.0, 0.0, 0.0, 8.999999999999999e-08)"
2018/07/18/15:56:53.872939,2340,1531943813,872263400,base_link,0.0,0.0,0.0,0.0,"(-1.0, 0.0, 0.0, 0.0, 0.0, 0.0, 0.0, 0.0, 0.0)",0.039,-0.614,0.452,"(1.2184696791468346e-07, 0.0, 0.0, 0.0, 1.2184696791468346e-07, 0.0, 0.0, 0.0, 1.2184696791468346e-07)",3.06948145,-0.196133,16.58304515,"(8.999999999999999e-08, 0.0, 0.0, 0.0, 8.999999999999999e-08, 0.0, 0.0, 0.0, 8.999999999999999e-08)"
2018/07/18/15:56:53.972885,2341,1531943813,972481711,base_link,0.0,0.0,0.0,0.0,"(-1.0, 0.0, 0.0, 0.0, 0.0, 0.0, 0.0, 0.0, 0.0)",0.015,-0.628,0.464,"(1.2184696791468346e-07, 0.0, 0.0, 0.0, 1.2184696791468346e-07, 0.0, 0.0, 0.0, 1.2184696791468346e-07)",3.0989014,-0.04903325,17.2008641,"(8.999999999999999e-08, 0.0, 0.0, 0.0, 8.999999999999999e-08, 0.0, 0.0, 0.0, 8.999999999999999e-08)"
2018/07/18/15:56:54.057434,2342,1531943814,44827097,base_link,0.0,0.0,0.0,0.0,"(-1.0, 0.0, 0.0, 0.0, 0.0, 0.0, 0.0, 0.0, 0.0)",0.003,-0.63,0.439,"(1.2184696791468346e-07, 0.0, 0.0, 0.0, 1.2184696791468346e-07, 0.0, 0.0, 0.0, 1.2184696791468346e-07)",3.20677455,2.09568960198e-15,17.11260425,"(8.999999999999999e-08, 0.0, 0.0, 0.0, 8.999999999999999e-08, 0.0, 0.0, 0.0, 8.999999999999999e-08)"
2018/07/18/15:56:54.166306,2343,1531943814,165577726,base_link,0.0,0.0,0.0,0.0,"(-1.0, 0.0, 0.0, 0.0, 0.0, 0.0, 0.0, 0.0, 0.0)",0.18,-0.619,0.375,"(1.2184696791468346e-07, 0.0, 0.0, 0.0, 1.2184696791468346e-07, 0.0, 0.0, 0.0, 1.2184696791468346e-07)",3.16754795,-0.0588399,15.4552804,"(8.999999999999999e-08, 0.0, 0.0, 0.0, 8.999999999999999e-08, 0.0, 0.0, 0.0, 8.999999999999999e-08)"
2018/07/18/15:56:54.256169,2344,1531943814,255318701,base_link,0.0,0.0,0.0,0.0,"(-1.0, 0.0, 0.0, 0.0, 0.0, 0.0, 0.0, 0.0, 0.0)",0.114,-0.611,0.3,"(1.2184696791468346e-07, 0.0, 0.0, 0.0, 1.2184696791468346e-07, 0.0, 0.0, 0.0, 1.2184696791468346e-07)",2.8047019,-0.9218251,16.2398124,"(8.999999999999999e-08, 0.0, 0.0, 0.0, 8.999999999999999e-08, 0.0, 0.0, 0.0, 8.999999999999999e-08)"
2018/07/18/15:56:54.349269,2345,1531943814,348370801,base_link,0.0,0.0,0.0,0.0,"(-1.0, 0.0, 0.0, 0.0, 0.0, 0.0, 0.0, 0.0, 0.0)",0.284,-0.652,0.373,"(1.2184696791468346e-07, 0.0, 0.0, 0.0, 1.2184696791468346e-07, 0.0, 0.0, 0.0, 1.2184696791468346e-07)",2.95180165,-0.3334261,17.9265562,"(8.999999999999999e-08, 0.0, 0.0, 0.0, 8.999999999999999e-08, 0.0, 0.0, 0.0, 8.999999999999999e-08)"
2018/07/18/15:56:54.476981,2346,1531943814,476384666,base_link,0.0,0.0,0.0,0.0,"(-1.0, 0.0, 0.0, 0.0, 0.0, 0.0, 0.0, 0.0, 0.0)",0.174,-0.629,0.424,"(1.2184696791468346e-07, 0.0, 0.0, 0.0, 1.2184696791468346e-07, 0.0, 0.0, 0.0, 1.2184696791468346e-07)",2.9027684,2.25301644316e-15,18.3972754,"(8.999999999999999e-08, 0.0, 0.0, 0.0, 8.999999999999999e-08, 0.0, 0.0, 0.0, 8.999999999999999e-08)"
2018/07/18/15:56:54.561581,2347,1531943814,561211047,base_link,0.0,0.0,0.0,0.0,"(-1.0, 0.0, 0.0, 0.0, 0.0, 0.0, 0.0, 0.0, 0.0)",0.009,-0.666,0.413,"(1.2184696791468346e-07, 0.0, 0.0, 0.0, 1.2184696791468346e-07, 0.0, 0.0, 0.0, 1.2184696791468346e-07)",3.1969679,-0.1372931,19.91730615,"(8.999999999999999e-08, 0.0, 0.0, 0.0, 8.999999999999999e-08, 0.0, 0.0, 0.0, 8.999999999999999e-08)"
2018/07/18/15:56:54.644668,2348,1531943814,644049420,base_link,0.0,0.0,0.0,0.0,"(-1.0, 0.0, 0.0, 0.0, 0.0, 0.0, 0.0, 0.0, 0.0)",0.172,-0.617,0.385,"(1.2184696791468346e-07, 0.0, 0.0, 0.0, 1.2184696791468346e-07, 0.0, 0.0, 0.0, 1.2184696791468346e-07)",2.7262487,-0.30400615,19.93691945,"(8.999999999999999e-08, 0.0, 0.0, 0.0, 8.999999999999999e-08, 0.0, 0.0, 0.0, 8.999999999999999e-08)"
2018/07/18/15:56:54.775059,2349,1531943814,774476151,base_link,0.0,0.0,0.0,0.0,"(-1.0, 0.0, 0.0, 0.0, 0.0, 0.0, 0.0, 0.0, 0.0)",0.24,-0.601,0.419,"(1.2184696791468346e-07, 0.0, 0.0, 0.0, 1.2184696791468346e-07, 0.0, 0.0, 0.0, 1.2184696791468346e-07)",2.55953565,-0.2941995,18.1030759,"(8.999999999999999e-08, 0.0, 0.0, 0.0, 8.999999999999999e-08, 0.0, 0.0, 0.0, 8.999999999999999e-08)"
2018/07/18/15:56:54.852371,2350,1531943814,850539859,base_link,0.0,0.0,0.0,0.0,"(-1.0, 0.0, 0.0, 0.0, 0.0, 0.0, 0.0, 0.0, 0.0)",0.246,-0.583,0.398,"(1.2184696791468346e-07, 0.0, 0.0, 0.0, 1.2184696791468346e-07, 0.0, 0.0, 0.0, 1.2184696791468346e-07)",2.28494945,-0.0392266,17.66177665,"(8.999999999999999e-08, 0.0, 0.0, 0.0, 8.999999999999999e-08, 0.0, 0.0, 0.0, 8.999999999999999e-08)"
2018/07/18/15:56:54.966075,2351,1531943814,965549953,base_link,0.0,0.0,0.0,0.0,"(-1.0, 0.0, 0.0, 0.0, 0.0, 0.0, 0.0, 0.0, 0.0)",0.232,-0.525,0.348,"(1.2184696791468346e-07, 0.0, 0.0, 0.0, 1.2184696791468346e-07, 0.0, 0.0, 0.0, 1.2184696791468346e-07)",1.9221034,-0.2745862,16.3574922,"(8.999999999999999e-08, 0.0, 0.0, 0.0, 8.999999999999999e-08, 0.0, 0.0, 0.0, 8.999999999999999e-08)"
2018/07/18/15:56:55.059223,2352,1531943815,58546375,base_link,0.0,0.0,0.0,0.0,"(-1.0, 0.0, 0.0, 0.0, 0.0, 0.0, 0.0, 0.0, 0.0)",0.567,-0.668,0.322,"(1.2184696791468346e-07, 0.0, 0.0, 0.0, 1.2184696791468346e-07, 0.0, 0.0, 0.0, 1.2184696791468346e-07)",1.36312435,0.1569064,17.6911966,"(8.999999999999999e-08, 0.0, 0.0, 0.0, 8.999999999999999e-08, 0.0, 0.0, 0.0, 8.999999999999999e-08)"
2018/07/18/15:56:55.153882,2353,1531943815,152411652,base_link,0.0,0.0,0.0,0.0,"(-1.0, 0.0, 0.0, 0.0, 0.0, 0.0, 0.0, 0.0, 0.0)",0.506,-0.709,0.306,"(1.2184696791468346e-07, 0.0, 0.0, 0.0, 1.2184696791468346e-07, 0.0, 0.0, 0.0, 1.2184696791468346e-07)",1.4121576,-0.3138128,18.8483813,"(8.999999999999999e-08, 0.0, 0.0, 0.0, 8.999999999999999e-08, 0.0, 0.0, 0.0, 8.999999999999999e-08)"
2018/07/18/15:56:55.266289,2354,1531943815,264659128,base_link,0.0,0.0,0.0,0.0,"(-1.0, 0.0, 0.0, 0.0, 0.0, 0.0, 0.0, 0.0, 0.0)",0.53,-0.635,0.328,"(1.2184696791468346e-07, 0.0, 0.0, 0.0, 1.2184696791468346e-07, 0.0, 0.0, 0.0, 1.2184696791468346e-07)",1.176798,0.0196133,19.221034,"(8.999999999999999e-08, 0.0, 0.0, 0.0, 8.999999999999999e-08, 0.0, 0.0, 0.0, 8.999999999999999e-08)"
2018/07/18/15:56:55.369128,2355,1531943815,368594485,base_link,0.0,0.0,0.0,0.0,"(-1.0, 0.0, 0.0, 0.0, 0.0, 0.0, 0.0, 0.0, 0.0)",0.431,-0.595,0.327,"(1.2184696791468346e-07, 0.0, 0.0, 0.0, 1.2184696791468346e-07, 0.0, 0.0, 0.0, 1.2184696791468346e-07)",0.81395195,-0.1372931,17.74022985,"(8.999999999999999e-08, 0.0, 0.0, 0.0, 8.999999999999999e-08, 0.0, 0.0, 0.0, 8.999999999999999e-08)"
2018/07/18/15:56:55.453799,2356,1531943815,453359012,base_link,0.0,0.0,0.0,0.0,"(-1.0, 0.0, 0.0, 0.0, 0.0, 0.0, 0.0, 0.0, 0.0)",0.567,-0.533,0.307,"(1.2184696791468346e-07, 0.0, 0.0, 0.0, 1.2184696791468346e-07, 0.0, 0.0, 0.0, 1.2184696791468346e-07)",0.44129925,0.0392266,17.46564365,"(8.999999999999999e-08, 0.0, 0.0, 0.0, 8.999999999999999e-08, 0.0, 0.0, 0.0, 8.999999999999999e-08)"
2018/07/18/15:56:55.550917,2357,1531943815,550379577,base_link,0.0,0.0,0.0,0.0,"(-1.0, 0.0, 0.0, 0.0, 0.0, 0.0, 0.0, 0.0, 0.0)",0.827,-0.451,0.265,"(1.2184696791468346e-07, 0.0, 0.0, 0.0, 1.2184696791468346e-07, 0.0, 0.0, 0.0, 1.2184696791468346e-07)",0.4903325,-0.34323275,15.0630144,"(8.999999999999999e-08, 0.0, 0.0, 0.0, 8.999999999999999e-08, 0.0, 0.0, 0.0, 8.999999999999999e-08)"
2018/07/18/15:56:55.657717,2358,1531943815,656584697,base_link,0.0,0.0,0.0,0.0,"(-1.0, 0.0, 0.0, 0.0, 0.0, 0.0, 0.0, 0.0, 0.0)",0.899,-0.331,0.308,"(1.2184696791468346e-07, 0.0, 0.0, 0.0, 1.2184696791468346e-07, 0.0, 0.0, 0.0, 1.2184696791468346e-07)",0.40207265,0.10787315,14.4942287,"(8.999999999999999e-08, 0.0, 0.0, 0.0, 8.999999999999999e-08, 0.0, 0.0, 0.0, 8.999999999999999e-08)"
2018/07/18/15:56:55.771386,2359,1531943815,770824948,base_link,0.0,0.0,0.0,0.0,"(-1.0, 0.0, 0.0, 0.0, 0.0, 0.0, 0.0, 0.0, 0.0)",0.79,-0.201,0.263,"(1.2184696791468346e-07, 0.0, 0.0, 0.0, 1.2184696791468346e-07, 0.0, 0.0, 0.0, 1.2184696791468346e-07)",0.46091255,0.24516625,14.3373223,"(8.999999999999999e-08, 0.0, 0.0, 0.0, 8.999999999999999e-08, 0.0, 0.0, 0.0, 8.999999999999999e-08)"
2018/07/18/15:56:55.856608,2360,1531943815,855862752,base_link,0.0,0.0,0.0,0.0,"(-1.0, 0.0, 0.0, 0.0, 0.0, 0.0, 0.0, 0.0, 0.0)",1.001,-0.152,0.206,"(1.2184696791468346e-07, 0.0, 0.0, 0.0, 1.2184696791468346e-07, 0.0, 0.0, 0.0, 1.2184696791468346e-07)",0.14709975,0.26477955,10.9246081,"(8.999999999999999e-08, 0.0, 0.0, 0.0, 8.999999999999999e-08, 0.0, 0.0, 0.0, 8.999999999999999e-08)"
2018/07/18/15:56:55.974693,2361,1531943815,972964823,base_link,0.0,0.0,0.0,0.0,"(-1.0, 0.0, 0.0, 0.0, 0.0, 0.0, 0.0, 0.0, 0.0)",0.974,-0.171,0.127,"(1.2184696791468346e-07, 0.0, 0.0, 0.0, 1.2184696791468346e-07, 0.0, 0.0, 0.0, 1.2184696791468346e-07)",-0.14709975,-0.12748645,10.8657682,"(8.999999999999999e-08, 0.0, 0.0, 0.0, 8.999999999999999e-08, 0.0, 0.0, 0.0, 8.999999999999999e-08)"
2018/07/18/15:56:56.081847,2362,1531943816,79963439,base_link,0.0,0.0,0.0,0.0,"(-1.0, 0.0, 0.0, 0.0, 0.0, 0.0, 0.0, 0.0, 0.0)",1.049,-0.117,0.083,"(1.2184696791468346e-07, 0.0, 0.0, 0.0, 1.2184696791468346e-07, 0.0, 0.0, 0.0, 1.2184696791468346e-07)",-0.0588399,-0.2745862,11.1403544,"(8.999999999999999e-08, 0.0, 0.0, 0.0, 8.999999999999999e-08, 0.0, 0.0, 0.0, 8.999999999999999e-08)"
2018/07/18/15:56:56.163506,2363,1531943816,162648732,base_link,0.0,0.0,0.0,0.0,"(-1.0, 0.0, 0.0, 0.0, 0.0, 0.0, 0.0, 0.0, 0.0)",1.029,-0.038,0.162,"(1.2184696791468346e-07, 0.0, 0.0, 0.0, 1.2184696791468346e-07, 0.0, 0.0, 0.0, 1.2184696791468346e-07)",-0.1176798,-0.1569064,11.40513395,"(8.999999999999999e-08, 0.0, 0.0, 0.0, 8.999999999999999e-08, 0.0, 0.0, 0.0, 8.999999999999999e-08)"
2018/07/18/15:56:56.252333,2364,1531943816,251679352,base_link,0.0,0.0,0.0,0.0,"(-1.0, 0.0, 0.0, 0.0, 0.0, 0.0, 0.0, 0.0, 0.0)",0.843,0.018,0.196,"(1.2184696791468346e-07, 0.0, 0.0, 0.0, 1.2184696791468346e-07, 0.0, 0.0, 0.0, 1.2184696791468346e-07)",-0.16671305,0.40207265,8.95347145,"(8.999999999999999e-08, 0.0, 0.0, 0.0, 8.999999999999999e-08, 0.0, 0.0, 0.0, 8.999999999999999e-08)"
2018/07/18/15:56:56.373462,2365,1531943816,372716736,base_link,0.0,0.0,0.0,0.0,"(-1.0, 0.0, 0.0, 0.0, 0.0, 0.0, 0.0, 0.0, 0.0)",0.697,0.092,0.119,"(1.2184696791468346e-07, 0.0, 0.0, 0.0, 1.2184696791468346e-07, 0.0, 0.0, 0.0, 1.2184696791468346e-07)",0.0392266,0.24516625,9.0417313,"(8.999999999999999e-08, 0.0, 0.0, 0.0, 8.999999999999999e-08, 0.0, 0.0, 0.0, 8.999999999999999e-08)"
2018/07/18/15:56:56.457807,2366,1531943816,456311617,base_link,0.0,0.0,0.0,0.0,"(-1.0, 0.0, 0.0, 0.0, 0.0, 0.0, 0.0, 0.0, 0.0)",0.598,0.195,0.079,"(1.2184696791468346e-07, 0.0, 0.0, 0.0, 1.2184696791468346e-07, 0.0, 0.0, 0.0, 1.2184696791468346e-07)",-0.2549729,0.48052585,8.11009955,"(8.999999999999999e-08, 0.0, 0.0, 0.0, 8.999999999999999e-08, 0.0, 0.0, 0.0, 8.999999999999999e-08)"
2018/07/18/15:56:56.556673,2367,1531943816,555306880,base_link,0.0,0.0,0.0,0.0,"(-1.0, 0.0, 0.0, 0.0, 0.0, 0.0, 0.0, 0.0, 0.0)",0.558,0.24,0.045,"(1.2184696791468346e-07, 0.0, 0.0, 0.0, 1.2184696791468346e-07, 0.0, 0.0, 0.0, 1.2184696791468346e-07)",-0.10787315,0.69627215,7.01175475,"(8.999999999999999e-08, 0.0, 0.0, 0.0, 8.999999999999999e-08, 0.0, 0.0, 0.0, 8.999999999999999e-08)"
2018/07/18/15:56:56.646799,2368,1531943816,646348195,base_link,0.0,0.0,0.0,0.0,"(-1.0, 0.0, 0.0, 0.0, 0.0, 0.0, 0.0, 0.0, 0.0)",0.674,0.213,-0.065,"(1.2184696791468346e-07, 0.0, 0.0, 0.0, 1.2184696791468346e-07, 0.0, 0.0, 0.0, 1.2184696791468346e-07)",-0.20593965,0.6472389,5.4132708,"(8.999999999999999e-08, 0.0, 0.0, 0.0, 8.999999999999999e-08, 0.0, 0.0, 0.0, 8.999999999999999e-08)"
2018/07/18/15:56:56.765221,2369,1531943816,757001966,base_link,0.0,0.0,0.0,0.0,"(-1.0, 0.0, 0.0, 0.0, 0.0, 0.0, 0.0, 0.0, 0.0)",0.441,0.18,-0.128,"(1.2184696791468346e-07, 0.0, 0.0, 0.0, 1.2184696791468346e-07, 0.0, 0.0, 0.0, 1.2184696791468346e-07)",-0.02941995,0.5099458,4.2953127,"(8.999999999999999e-08, 0.0, 0.0, 0.0, 8.999999999999999e-08, 0.0, 0.0, 0.0, 8.999999999999999e-08)"
2018/07/18/15:56:56.836663,2370,1531943816,836176167,base_link,0.0,0.0,0.0,0.0,"(-1.0, 0.0, 0.0, 0.0, 0.0, 0.0, 0.0, 0.0, 0.0)",0.123,0.108,-0.141,"(1.2184696791468346e-07, 0.0, 0.0, 0.0, 1.2184696791468346e-07, 0.0, 0.0, 0.0, 1.2184696791468346e-07)",-0.20593965,0.3530394,5.85457005,"(8.999999999999999e-08, 0.0, 0.0, 0.0, 8.999999999999999e-08, 0.0, 0.0, 0.0, 8.999999999999999e-08)"
2018/07/18/15:56:56.990419,2371,1531943816,989376025,base_link,0.0,0.0,0.0,0.0,"(-1.0, 0.0, 0.0, 0.0, 0.0, 0.0, 0.0, 0.0, 0.0)",0.138,0.151,-0.203,"(1.2184696791468346e-07, 0.0, 0.0, 0.0, 1.2184696791468346e-07, 0.0, 0.0, 0.0, 1.2184696791468346e-07)",0.0392266,0.3334261,7.18827445,"(8.999999999999999e-08, 0.0, 0.0, 0.0, 8.999999999999999e-08, 0.0, 0.0, 0.0, 8.999999999999999e-08)"
2018/07/18/15:56:57.052930,2372,1531943817,52380895,base_link,0.0,0.0,0.0,0.0,"(-1.0, 0.0, 0.0, 0.0, 0.0, 0.0, 0.0, 0.0, 0.0)",0.213,0.196,-0.218,"(1.2184696791468346e-07, 0.0, 0.0, 0.0, 1.2184696791468346e-07, 0.0, 0.0, 0.0, 1.2184696791468346e-07)",0.08825985,0.36284605,7.61976705,"(8.999999999999999e-08, 0.0, 0.0, 0.0, 8.999999999999999e-08, 0.0, 0.0, 0.0, 8.999999999999999e-08)"
2018/07/18/15:56:57.155466,2373,1531943817,153630372,base_link,0.0,0.0,0.0,0.0,"(-1.0, 0.0, 0.0, 0.0, 0.0, 0.0, 0.0, 0.0, 0.0)",0.214,0.234,-0.209,"(1.2184696791468346e-07, 0.0, 0.0, 0.0, 1.2184696791468346e-07, 0.0, 0.0, 0.0, 1.2184696791468346e-07)",0.0392266,0.2549729,7.1000146,"(8.999999999999999e-08, 0.0, 0.0, 0.0, 8.999999999999999e-08, 0.0, 0.0, 0.0, 8.999999999999999e-08)"
2018/07/18/15:56:57.262921,2374,1531943817,259358352,base_link,0.0,0.0,0.0,0.0,"(-1.0, 0.0, 0.0, 0.0, 0.0, 0.0, 0.0, 0.0, 0.0)",0.005,0.283,-0.167,"(1.2184696791468346e-07, 0.0, 0.0, 0.0, 1.2184696791468346e-07, 0.0, 0.0, 0.0, 1.2184696791468346e-07)",-0.1372931,-0.1372931,5.9624432,"(8.999999999999999e-08, 0.0, 0.0, 0.0, 8.999999999999999e-08, 0.0, 0.0, 0.0, 8.999999999999999e-08)"
2018/07/18/15:56:57.377456,2375,1531943817,376357039,base_link,0.0,0.0,0.0,0.0,"(-1.0, 0.0, 0.0, 0.0, 0.0, 0.0, 0.0, 0.0, 0.0)",-0.004,0.232,-0.111,"(1.2184696791468346e-07, 0.0, 0.0, 0.0, 1.2184696791468346e-07, 0.0, 0.0, 0.0, 1.2184696791468346e-07)",-0.26477955,-0.1765197,5.1190713,"(8.999999999999999e-08, 0.0, 0.0, 0.0, 8.999999999999999e-08, 0.0, 0.0, 0.0, 8.999999999999999e-08)"
2018/07/18/15:56:57.450080,2376,1531943817,447325937,base_link,0.0,0.0,0.0,0.0,"(-1.0, 0.0, 0.0, 0.0, 0.0, 0.0, 0.0, 0.0, 0.0)",-0.081,0.317,-0.09,"(1.2184696791468346e-07, 0.0, 0.0, 0.0, 1.2184696791468346e-07, 0.0, 0.0, 0.0, 1.2184696791468346e-07)",-0.2549729,-0.42168595,3.69710705,"(8.999999999999999e-08, 0.0, 0.0, 0.0, 8.999999999999999e-08, 0.0, 0.0, 0.0, 8.999999999999999e-08)"
2018/07/18/15:56:57.572753,2377,1531943817,572214956,base_link,0.0,0.0,0.0,0.0,"(-1.0, 0.0, 0.0, 0.0, 0.0, 0.0, 0.0, 0.0, 0.0)",-0.053,0.292,-0.005,"(1.2184696791468346e-07, 0.0, 0.0, 0.0, 1.2184696791468346e-07, 0.0, 0.0, 0.0, 1.2184696791468346e-07)",-0.0784532,0.18632635,4.06975975,"(8.999999999999999e-08, 0.0, 0.0, 0.0, 8.999999999999999e-08, 0.0, 0.0, 0.0, 8.999999999999999e-08)"
2018/07/18/15:56:57.644356,2378,1531943817,642782547,base_link,0.0,0.0,0.0,0.0,"(-1.0, 0.0, 0.0, 0.0, 0.0, 0.0, 0.0, 0.0, 0.0)",-0.064,0.24,-0.008,"(1.2184696791468346e-07, 0.0, 0.0, 0.0, 1.2184696791468346e-07, 0.0, 0.0, 0.0, 1.2184696791468346e-07)",-0.3334261,-0.00980665,4.2168595,"(8.999999999999999e-08, 0.0, 0.0, 0.0, 8.999999999999999e-08, 0.0, 0.0, 0.0, 8.999999999999999e-08)"
2018/07/18/15:56:57.764123,2379,1531943817,763680032,base_link,0.0,0.0,0.0,0.0,"(-1.0, 0.0, 0.0, 0.0, 0.0, 0.0, 0.0, 0.0, 0.0)",-0.164,0.213,-0.027,"(1.2184696791468346e-07, 0.0, 0.0, 0.0, 1.2184696791468346e-07, 0.0, 0.0, 0.0, 1.2184696791468346e-07)",-0.38245935,0.1569064,5.0013915,"(8.999999999999999e-08, 0.0, 0.0, 0.0, 8.999999999999999e-08, 0.0, 0.0, 0.0, 8.999999999999999e-08)"
2018/07/18/15:56:57.857646,2380,1531943817,856737324,base_link,0.0,0.0,0.0,0.0,"(-1.0, 0.0, 0.0, 0.0, 0.0, 0.0, 0.0, 0.0, 0.0)",-0.238,0.222,-0.047,"(1.2184696791468346e-07, 0.0, 0.0, 0.0, 1.2184696791468346e-07, 0.0, 0.0, 0.0, 1.2184696791468346e-07)",-0.26477955,0.67665885,5.2367511,"(8.999999999999999e-08, 0.0, 0.0, 0.0, 8.999999999999999e-08, 0.0, 0.0, 0.0, 8.999999999999999e-08)"
2018/07/18/15:56:57.956157,2381,1531943817,955524752,base_link,0.0,0.0,0.0,0.0,"(-1.0, 0.0, 0.0, 0.0, 0.0, 0.0, 0.0, 0.0, 0.0)",-0.339,0.214,-0.102,"(1.2184696791468346e-07, 0.0, 0.0, 0.0, 1.2184696791468346e-07, 0.0, 0.0, 0.0, 1.2184696791468346e-07)",-0.2549729,0.61781895,5.46230405,"(8.999999999999999e-08, 0.0, 0.0, 0.0, 8.999999999999999e-08, 0.0, 0.0, 0.0, 8.999999999999999e-08)"
2018/07/18/15:56:58.050116,2382,1531943818,49013944,base_link,0.0,0.0,0.0,0.0,"(-1.0, 0.0, 0.0, 0.0, 0.0, 0.0, 0.0, 0.0, 0.0)",-0.307,0.186,-0.134,"(1.2184696791468346e-07, 0.0, 0.0, 0.0, 1.2184696791468346e-07, 0.0, 0.0, 0.0, 1.2184696791468346e-07)",-0.3726527,0.20593965,5.6290171,"(8.999999999999999e-08, 0.0, 0.0, 0.0, 8.999999999999999e-08, 0.0, 0.0, 0.0, 8.999999999999999e-08)"
2018/07/18/15:56:58.154530,2383,1531943818,153861778,base_link,0.0,0.0,0.0,0.0,"(-1.0, 0.0, 0.0, 0.0, 0.0, 0.0, 0.0, 0.0, 0.0)",-0.254,0.141,-0.172,"(1.2184696791468346e-07, 0.0, 0.0, 0.0, 1.2184696791468346e-07, 0.0, 0.0, 0.0, 1.2184696791468346e-07)",-0.4707192,0.0588399,6.08992965,"(8.999999999999999e-08, 0.0, 0.0, 0.0, 8.999999999999999e-08, 0.0, 0.0, 0.0, 8.999999999999999e-08)"
2018/07/18/15:56:58.250952,2384,1531943818,250205943,base_link,0.0,0.0,0.0,0.0,"(-1.0, 0.0, 0.0, 0.0, 0.0, 0.0, 0.0, 0.0, 0.0)",-0.22,0.081,-0.184,"(1.2184696791468346e-07, 0.0, 0.0, 0.0, 1.2184696791468346e-07, 0.0, 0.0, 0.0, 1.2184696791468346e-07)",-0.4118793,0.16671305,6.9431082,"(8.999999999999999e-08, 0.0, 0.0, 0.0, 8.999999999999999e-08, 0.0, 0.0, 0.0, 8.999999999999999e-08)"
2018/07/18/15:56:58.376528,2385,1531943818,376046281,base_link,0.0,0.0,0.0,0.0,"(-1.0, 0.0, 0.0, 0.0, 0.0, 0.0, 0.0, 0.0, 0.0)",-0.058,0.079,-0.18,"(1.2184696791468346e-07, 0.0, 0.0, 0.0, 1.2184696791468346e-07, 0.0, 0.0, 0.0, 1.2184696791468346e-07)",-0.28439285,0.4118793,7.2765343,"(8.999999999999999e-08, 0.0, 0.0, 0.0, 8.999999999999999e-08, 0.0, 0.0, 0.0, 8.999999999999999e-08)"
2018/07/18/15:56:58.457080,2386,1531943818,455445539,base_link,0.0,0.0,0.0,0.0,"(-1.0, 0.0, 0.0, 0.0, 0.0, 0.0, 0.0, 0.0, 0.0)",-0.068,0.057,-0.177,"(1.2184696791468346e-07, 0.0, 0.0, 0.0, 1.2184696791468346e-07, 0.0, 0.0, 0.0, 1.2184696791468346e-07)",-0.42168595,-0.26477955,7.8649333,"(8.999999999999999e-08, 0.0, 0.0, 0.0, 8.999999999999999e-08, 0.0, 0.0, 0.0, 8.999999999999999e-08)"
2018/07/18/15:56:58.575872,2387,1531943818,572256231,base_link,0.0,0.0,0.0,0.0,"(-1.0, 0.0, 0.0, 0.0, 0.0, 0.0, 0.0, 0.0, 0.0)",-0.087,0.019,-0.124,"(1.2184696791468346e-07, 0.0, 0.0, 0.0, 1.2184696791468346e-07, 0.0, 0.0, 0.0, 1.2184696791468346e-07)",-0.392266,0.0980665,8.1199062,"(8.999999999999999e-08, 0.0, 0.0, 0.0, 8.999999999999999e-08, 0.0, 0.0, 0.0, 8.999999999999999e-08)"
2018/07/18/15:56:58.668556,2388,1531943818,667412795,base_link,0.0,0.0,0.0,0.0,"(-1.0, 0.0, 0.0, 0.0, 0.0, 0.0, 0.0, 0.0, 0.0)",0.006,0.049,-0.067,"(1.2184696791468346e-07, 0.0, 0.0, 0.0, 1.2184696791468346e-07, 0.0, 0.0, 0.0, 1.2184696791468346e-07)",-0.3530394,-0.12748645,8.11009955,"(8.999999999999999e-08, 0.0, 0.0, 0.0, 8.999999999999999e-08, 0.0, 0.0, 0.0, 8.999999999999999e-08)"
2018/07/18/15:56:58.768389,2389,1531943818,767410482,base_link,0.0,0.0,0.0,0.0,"(-1.0, 0.0, 0.0, 0.0, 0.0, 0.0, 0.0, 0.0, 0.0)",0.036,-0.042,-0.015,"(1.2184696791468346e-07, 0.0, 0.0, 0.0, 1.2184696791468346e-07, 0.0, 0.0, 0.0, 1.2184696791468346e-07)",-0.50013915,-0.3138128,8.63965865,"(8.999999999999999e-08, 0.0, 0.0, 0.0, 8.999999999999999e-08, 0.0, 0.0, 0.0, 8.999999999999999e-08)"
2018/07/18/15:56:58.867323,2390,1531943818,863591801,base_link,0.0,0.0,0.0,0.0,"(-1.0, 0.0, 0.0, 0.0, 0.0, 0.0, 0.0, 0.0, 0.0)",-0.062,-0.053,0.037,"(1.2184696791468346e-07, 0.0, 0.0, 0.0, 1.2184696791468346e-07, 0.0, 0.0, 0.0, 1.2184696791468346e-07)",-0.40207265,0.14709975,8.60043205,"(8.999999999999999e-08, 0.0, 0.0, 0.0, 8.999999999999999e-08, 0.0, 0.0, 0.0, 8.999999999999999e-08)"
2018/07/18/15:56:58.962851,2391,1531943818,960618101,base_link,0.0,0.0,0.0,0.0,"(-1.0, 0.0, 0.0, 0.0, 0.0, 0.0, 0.0, 0.0, 0.0)",-0.079,-0.017,0.047,"(1.2184696791468346e-07, 0.0, 0.0, 0.0, 1.2184696791468346e-07, 0.0, 0.0, 0.0, 1.2184696791468346e-07)",-0.55897905,0.14709975,9.0613446,"(8.999999999999999e-08, 0.0, 0.0, 0.0, 8.999999999999999e-08, 0.0, 0.0, 0.0, 8.999999999999999e-08)"
2018/07/18/15:56:59.059666,2392,1531943819,58754149,base_link,0.0,0.0,0.0,0.0,"(-1.0, 0.0, 0.0, 0.0, 0.0, 0.0, 0.0, 0.0, 0.0)",-0.036,-0.016,0.052,"(1.2184696791468346e-07, 0.0, 0.0, 0.0, 1.2184696791468346e-07, 0.0, 0.0, 0.0, 1.2184696791468346e-07)",-0.44129925,0.22555295,9.2770909,"(8.999999999999999e-08, 0.0, 0.0, 0.0, 8.999999999999999e-08, 0.0, 0.0, 0.0, 8.999999999999999e-08)"
2018/07/18/15:56:59.144571,2393,1531943819,143928761,base_link,0.0,0.0,0.0,0.0,"(-1.0, 0.0, 0.0, 0.0, 0.0, 0.0, 0.0, 0.0, 0.0)",-0.089,-0.03,0.044,"(1.2184696791468346e-07, 0.0, 0.0, 0.0, 1.2184696791468346e-07, 0.0, 0.0, 0.0, 1.2184696791468346e-07)",-0.5295591,0.1176798,10.14988275,"(8.999999999999999e-08, 0.0, 0.0, 0.0, 8.999999999999999e-08, 0.0, 0.0, 0.0, 8.999999999999999e-08)"
2018/07/18/15:56:59.245775,2394,1531943819,245255170,base_link,0.0,0.0,0.0,0.0,"(-1.0, 0.0, 0.0, 0.0, 0.0, 0.0, 0.0, 0.0, 0.0)",-0.138,-0.012,0.04,"(1.2184696791468346e-07, 0.0, 0.0, 0.0, 1.2184696791468346e-07, 0.0, 0.0, 0.0, 1.2184696791468346e-07)",-0.392266,0.0980665,10.4538889,"(8.999999999999999e-08, 0.0, 0.0, 0.0, 8.999999999999999e-08, 0.0, 0.0, 0.0, 8.999999999999999e-08)"
2018/07/18/15:56:59.370372,2395,1531943819,369596106,base_link,0.0,0.0,0.0,0.0,"(-1.0, 0.0, 0.0, 0.0, 0.0, 0.0, 0.0, 0.0, 0.0)",-0.054,-0.052,-0.008,"(1.2184696791468346e-07, 0.0, 0.0, 0.0, 1.2184696791468346e-07, 0.0, 0.0, 0.0, 1.2184696791468346e-07)",-0.6080123,-0.04903325,10.3362091,"(8.999999999999999e-08, 0.0, 0.0, 0.0, 8.999999999999999e-08, 0.0, 0.0, 0.0, 8.999999999999999e-08)"
2018/07/18/15:56:59.453619,2396,1531943819,452354268,base_link,0.0,0.0,0.0,0.0,"(-1.0, 0.0, 0.0, 0.0, 0.0, 0.0, 0.0, 0.0, 0.0)",-0.005,-0.089,-0.004,"(1.2184696791468346e-07, 0.0, 0.0, 0.0, 1.2184696791468346e-07, 0.0, 0.0, 0.0, 1.2184696791468346e-07)",-0.4314926,0.0588399,10.8853815,"(8.999999999999999e-08, 0.0, 0.0, 0.0, 8.999999999999999e-08, 0.0, 0.0, 0.0, 8.999999999999999e-08)"
2018/07/18/15:56:59.556864,2397,1531943819,556154342,base_link,0.0,0.0,0.0,0.0,"(-1.0, 0.0, 0.0, 0.0, 0.0, 0.0, 0.0, 0.0, 0.0)",-0.003,-0.128,-0.02,"(1.2184696791468346e-07, 0.0, 0.0, 0.0, 1.2184696791468346e-07, 0.0, 0.0, 0.0, 1.2184696791468346e-07)",-0.6472389,0.26477955,10.73828175,"(8.999999999999999e-08, 0.0, 0.0, 0.0, 8.999999999999999e-08, 0.0, 0.0, 0.0, 8.999999999999999e-08)"
2018/07/18/15:56:59.686689,2398,1531943819,686166184,base_link,0.0,0.0,0.0,0.0,"(-1.0, 0.0, 0.0, 0.0, 0.0, 0.0, 0.0, 0.0, 0.0)",0.006,-0.158,-0.029,"(1.2184696791468346e-07, 0.0, 0.0, 0.0, 1.2184696791468346e-07, 0.0, 0.0, 0.0, 1.2184696791468346e-07)",-0.5295591,0.36284605,10.9638347,"(8.999999999999999e-08, 0.0, 0.0, 0.0, 8.999999999999999e-08, 0.0, 0.0, 0.0, 8.999999999999999e-08)"
2018/07/18/15:56:59.773826,2399,1531943819,773146949,base_link,0.0,0.0,0.0,0.0,"(-1.0, 0.0, 0.0, 0.0, 0.0, 0.0, 0.0, 0.0, 0.0)",-0.062,-0.139,-0.044,"(1.2184696791468346e-07, 0.0, 0.0, 0.0, 1.2184696791468346e-07, 0.0, 0.0, 0.0, 1.2184696791468346e-07)",-0.6080123,0.46091255,10.60098865,"(8.999999999999999e-08, 0.0, 0.0, 0.0, 8.999999999999999e-08, 0.0, 0.0, 0.0, 8.999999999999999e-08)"
2018/07/18/15:56:59.826239,2400,1531943819,825628434,base_link,0.0,0.0,0.0,0.0,"(-1.0, 0.0, 0.0, 0.0, 0.0, 0.0, 0.0, 0.0, 0.0)",-0.097,-0.16,-0.048,"(1.2184696791468346e-07, 0.0, 0.0, 0.0, 1.2184696791468346e-07, 0.0, 0.0, 0.0, 1.2184696791468346e-07)",-0.63743225,-0.2157463,11.16977435,"(8.999999999999999e-08, 0.0, 0.0, 0.0, 8.999999999999999e-08, 0.0, 0.0, 0.0, 8.999999999999999e-08)"
2018/07/18/15:56:59.972370,2401,1531943819,971602635,base_link,0.0,0.0,0.0,0.0,"(-1.0, 0.0, 0.0, 0.0, 0.0, 0.0, 0.0, 0.0, 0.0)",-0.009,-0.188,-0.018,"(1.2184696791468346e-07, 0.0, 0.0, 0.0, 1.2184696791468346e-07, 0.0, 0.0, 0.0, 1.2184696791468346e-07)",-0.40207265,0.08825985,11.75817335,"(8.999999999999999e-08, 0.0, 0.0, 0.0, 8.999999999999999e-08, 0.0, 0.0, 0.0, 8.999999999999999e-08)"
2018/07/18/15:57:00.062898,2402,1531943820,60938509,base_link,0.0,0.0,0.0,0.0,"(-1.0, 0.0, 0.0, 0.0, 0.0, 0.0, 0.0, 0.0, 0.0)",0.11,-0.129,-0.025,"(1.2184696791468346e-07, 0.0, 0.0, 0.0, 1.2184696791468346e-07, 0.0, 0.0, 0.0, 1.2184696791468346e-07)",-0.4314926,0.32361945,11.8072066,"(8.999999999999999e-08, 0.0, 0.0, 0.0, 8.999999999999999e-08, 0.0, 0.0, 0.0, 8.999999999999999e-08)"
2018/07/18/15:57:00.152541,2403,1531943820,152079832,base_link,0.0,0.0,0.0,0.0,"(-1.0, 0.0, 0.0, 0.0, 0.0, 0.0, 0.0, 0.0, 0.0)",0.21,-0.162,-0.003,"(1.2184696791468346e-07, 0.0, 0.0, 0.0, 1.2184696791468346e-07, 0.0, 0.0, 0.0, 1.2184696791468346e-07)",-0.4314926,-0.55897905,12.20927925,"(8.999999999999999e-08, 0.0, 0.0, 0.0, 8.999999999999999e-08, 0.0, 0.0, 0.0, 8.999999999999999e-08)"
2018/07/18/15:57:00.248717,2404,1531943820,247840074,base_link,0.0,0.0,0.0,0.0,"(-1.0, 0.0, 0.0, 0.0, 0.0, 0.0, 0.0, 0.0, 0.0)",0.27,-0.149,0.041,"(1.2184696791468346e-07, 0.0, 0.0, 0.0, 1.2184696791468346e-07, 0.0, 0.0, 0.0, 1.2184696791468346e-07)",-0.392266,-0.0588399,11.46397385,"(8.999999999999999e-08, 0.0, 0.0, 0.0, 8.999999999999999e-08, 0.0, 0.0, 0.0, 8.999999999999999e-08)"
2018/07/18/15:57:00.375593,2405,1531943820,374963411,base_link,0.0,0.0,0.0,0.0,"(-1.0, 0.0, 0.0, 0.0, 0.0, 0.0, 0.0, 0.0, 0.0)",0.183,-0.166,0.052,"(1.2184696791468346e-07, 0.0, 0.0, 0.0, 1.2184696791468346e-07, 0.0, 0.0, 0.0, 1.2184696791468346e-07)",-0.44129925,0.5687857,11.5326204,"(8.999999999999999e-08, 0.0, 0.0, 0.0, 8.999999999999999e-08, 0.0, 0.0, 0.0, 8.999999999999999e-08)"
2018/07/18/15:57:00.456651,2406,1531943820,455240711,base_link,0.0,0.0,0.0,0.0,"(-1.0, 0.0, 0.0, 0.0, 0.0, 0.0, 0.0, 0.0, 0.0)",0.122,-0.152,0.013,"(1.2184696791468346e-07, 0.0, 0.0, 0.0, 1.2184696791468346e-07, 0.0, 0.0, 0.0, 1.2184696791468346e-07)",-0.44129925,-0.12748645,11.73856005,"(8.999999999999999e-08, 0.0, 0.0, 0.0, 8.999999999999999e-08, 0.0, 0.0, 0.0, 8.999999999999999e-08)"
2018/07/18/15:57:00.543931,2407,1531943820,541078228,base_link,0.0,0.0,0.0,0.0,"(-1.0, 0.0, 0.0, 0.0, 0.0, 0.0, 0.0, 0.0, 0.0)",0.126,-0.141,0.005,"(1.2184696791468346e-07, 0.0, 0.0, 0.0, 1.2184696791468346e-07, 0.0, 0.0, 0.0, 1.2184696791468346e-07)",-0.36284605,0.4707192,11.34629405,"(8.999999999999999e-08, 0.0, 0.0, 0.0, 8.999999999999999e-08, 0.0, 0.0, 0.0, 8.999999999999999e-08)"
2018/07/18/15:57:00.717067,2408,1531943820,715765547,base_link,0.0,0.0,0.0,0.0,"(-1.0, 0.0, 0.0, 0.0, 0.0, 0.0, 0.0, 0.0, 0.0)",0.138,-0.095,-0.044,"(1.2184696791468346e-07, 0.0, 0.0, 0.0, 1.2184696791468346e-07, 0.0, 0.0, 0.0, 1.2184696791468346e-07)",-0.26477955,0.1765197,11.375714,"(8.999999999999999e-08, 0.0, 0.0, 0.0, 8.999999999999999e-08, 0.0, 0.0, 0.0, 8.999999999999999e-08)"
2018/07/18/15:57:00.783783,2409,1531943820,783272190,base_link,0.0,0.0,0.0,0.0,"(-1.0, 0.0, 0.0, 0.0, 0.0, 0.0, 0.0, 0.0, 0.0)",0.091,-0.078,-0.056,"(1.2184696791468346e-07, 0.0, 0.0, 0.0, 1.2184696791468346e-07, 0.0, 0.0, 0.0, 1.2184696791468346e-07)",-0.2157463,0.7060788,10.983448,"(8.999999999999999e-08, 0.0, 0.0, 0.0, 8.999999999999999e-08, 0.0, 0.0, 0.0, 8.999999999999999e-08)"
2018/07/18/15:57:00.880604,2410,1531943820,877615393,base_link,0.0,0.0,0.0,0.0,"(-1.0, 0.0, 0.0, 0.0, 0.0, 0.0, 0.0, 0.0, 0.0)",0.155,-0.069,-0.106,"(1.2184696791468346e-07, 0.0, 0.0, 0.0, 1.2184696791468346e-07, 0.0, 0.0, 0.0, 1.2184696791468346e-07)",-0.32361945,0.12748645,10.7480884,"(8.999999999999999e-08, 0.0, 0.0, 0.0, 8.999999999999999e-08, 0.0, 0.0, 0.0, 8.999999999999999e-08)"
2018/07/18/15:57:00.988298,2411,1531943820,987726655,base_link,0.0,0.0,0.0,0.0,"(-1.0, 0.0, 0.0, 0.0, 0.0, 0.0, 0.0, 0.0, 0.0)",0.157,-0.072,-0.133,"(1.2184696791468346e-07, 0.0, 0.0, 0.0, 1.2184696791468346e-07, 0.0, 0.0, 0.0, 1.2184696791468346e-07)",-0.34323275,-0.00980665,10.48330885,"(8.999999999999999e-08, 0.0, 0.0, 0.0, 8.999999999999999e-08, 0.0, 0.0, 0.0, 8.999999999999999e-08)"
2018/07/18/15:57:01.057521,2412,1531943821,55042710,base_link,0.0,0.0,0.0,0.0,"(-1.0, 0.0, 0.0, 0.0, 0.0, 0.0, 0.0, 0.0, 0.0)",0.191,-0.063,-0.119,"(1.2184696791468346e-07, 0.0, 0.0, 0.0, 1.2184696791468346e-07, 0.0, 0.0, 0.0, 1.2184696791468346e-07)",-0.196133,0.34323275,9.87529655,"(8.999999999999999e-08, 0.0, 0.0, 0.0, 8.999999999999999e-08, 0.0, 0.0, 0.0, 8.999999999999999e-08)"
2018/07/18/15:57:01.159277,2413,1531943821,158652841,base_link,0.0,0.0,0.0,0.0,"(-1.0, 0.0, 0.0, 0.0, 0.0, 0.0, 0.0, 0.0, 0.0)",0.234,-0.081,-0.102,"(1.2184696791468346e-07, 0.0, 0.0, 0.0, 1.2184696791468346e-07, 0.0, 0.0, 0.0, 1.2184696791468346e-07)",-0.1176798,0.392266,10.32640245,"(8.999999999999999e-08, 0.0, 0.0, 0.0, 8.999999999999999e-08, 0.0, 0.0, 0.0, 8.999999999999999e-08)"
2018/07/18/15:57:01.257573,2414,1531943821,257212346,base_link,0.0,0.0,0.0,0.0,"(-1.0, 0.0, 0.0, 0.0, 0.0, 0.0, 0.0, 0.0, 0.0)",0.175,-0.111,-0.096,"(1.2184696791468346e-07, 0.0, 0.0, 0.0, 1.2184696791468346e-07, 0.0, 0.0, 0.0, 1.2184696791468346e-07)",-0.06864655,0.2745862,10.7088618,"(8.999999999999999e-08, 0.0, 0.0, 0.0, 8.999999999999999e-08, 0.0, 0.0, 0.0, 8.999999999999999e-08)"
2018/07/18/15:57:01.363825,2415,1531943821,363094288,base_link,0.0,0.0,0.0,0.0,"(-1.0, 0.0, 0.0, 0.0, 0.0, 0.0, 0.0, 0.0, 0.0)",0.317,-0.114,-0.083,"(1.2184696791468346e-07, 0.0, 0.0, 0.0, 1.2184696791468346e-07, 0.0, 0.0, 0.0, 1.2184696791468346e-07)",0.14709975,0.3138128,11.5914603,"(8.999999999999999e-08, 0.0, 0.0, 0.0, 8.999999999999999e-08, 0.0, 0.0, 0.0, 8.999999999999999e-08)"
2018/07/18/15:57:01.465957,2416,1531943821,465335507,base_link,0.0,0.0,0.0,0.0,"(-1.0, 0.0, 0.0, 0.0, 0.0, 0.0, 0.0, 0.0, 0.0)",0.314,-0.078,-0.078,"(1.2184696791468346e-07, 0.0, 0.0, 0.0, 1.2184696791468346e-07, 0.0, 0.0, 0.0, 1.2184696791468346e-07)",0.18632635,0.32361945,11.16977435,"(8.999999999999999e-08, 0.0, 0.0, 0.0, 8.999999999999999e-08, 0.0, 0.0, 0.0, 8.999999999999999e-08)"
2018/07/18/15:57:01.555711,2417,1531943821,554873237,base_link,0.0,0.0,0.0,0.0,"(-1.0, 0.0, 0.0, 0.0, 0.0, 0.0, 0.0, 0.0, 0.0)",0.219,-0.058,-0.058,"(1.2184696791468346e-07, 0.0, 0.0, 0.0, 1.2184696791468346e-07, 0.0, 0.0, 0.0, 1.2184696791468346e-07)",0.10787315,0.36284605,10.4538889,"(8.999999999999999e-08, 0.0, 0.0, 0.0, 8.999999999999999e-08, 0.0, 0.0, 0.0, 8.999999999999999e-08)"
2018/07/18/15:57:01.653744,2418,1531943821,653299464,base_link,0.0,0.0,0.0,0.0,"(-1.0, 0.0, 0.0, 0.0, 0.0, 0.0, 0.0, 0.0, 0.0)",0.108,-0.042,-0.057,"(1.2184696791468346e-07, 0.0, 0.0, 0.0, 1.2184696791468346e-07, 0.0, 0.0, 0.0, 1.2184696791468346e-07)",-0.04903325,0.2745862,10.07142955,"(8.999999999999999e-08, 0.0, 0.0, 0.0, 8.999999999999999e-08, 0.0, 0.0, 0.0, 8.999999999999999e-08)"
2018/07/18/15:57:01.728628,2419,1531943821,727964035,base_link,0.0,0.0,0.0,0.0,"(-1.0, 0.0, 0.0, 0.0, 0.0, 0.0, 0.0, 0.0, 0.0)",0.112,-0.047,-0.084,"(1.2184696791468346e-07, 0.0, 0.0, 0.0, 1.2184696791468346e-07, 0.0, 0.0, 0.0, 1.2184696791468346e-07)",-0.10787315,0.42168595,10.24794925,"(8.999999999999999e-08, 0.0, 0.0, 0.0, 8.999999999999999e-08, 0.0, 0.0, 0.0, 8.999999999999999e-08)"
2018/07/18/15:57:01.851443,2420,1531943821,850756134,base_link,0.0,0.0,0.0,0.0,"(-1.0, 0.0, 0.0, 0.0, 0.0, 0.0, 0.0, 0.0, 0.0)",0.094,-0.011,-0.15,"(1.2184696791468346e-07, 0.0, 0.0, 0.0, 1.2184696791468346e-07, 0.0, 0.0, 0.0, 1.2184696791468346e-07)",0.0196133,0.6276256,8.91424485,"(8.999999999999999e-08, 0.0, 0.0, 0.0, 8.999999999999999e-08, 0.0, 0.0, 0.0, 8.999999999999999e-08)"
2018/07/18/15:57:01.972490,2421,1531943821,971963292,base_link,0.0,0.0,0.0,0.0,"(-1.0, 0.0, 0.0, 0.0, 0.0, 0.0, 0.0, 0.0, 0.0)",0.199,0.002,-0.206,"(1.2184696791468346e-07, 0.0, 0.0, 0.0, 1.2184696791468346e-07, 0.0, 0.0, 0.0, 1.2184696791468346e-07)",0.06864655,0.53936575,8.24739265,"(8.999999999999999e-08, 0.0, 0.0, 0.0, 8.999999999999999e-08, 0.0, 0.0, 0.0, 8.999999999999999e-08)"
2018/07/18/15:57:02.065337,2422,1531943822,64909717,base_link,0.0,0.0,0.0,0.0,"(-1.0, 0.0, 0.0, 0.0, 0.0, 0.0, 0.0, 0.0, 0.0)",0.199,-0.009,-0.256,"(1.2184696791468346e-07, 0.0, 0.0, 0.0, 1.2184696791468346e-07, 0.0, 0.0, 0.0, 1.2184696791468346e-07)",0.0588399,0.53936575,8.6102387,"(8.999999999999999e-08, 0.0, 0.0, 0.0, 8.999999999999999e-08, 0.0, 0.0, 0.0, 8.999999999999999e-08)"
2018/07/18/15:57:02.141343,2423,1531943822,140271946,base_link,0.0,0.0,0.0,0.0,"(-1.0, 0.0, 0.0, 0.0, 0.0, 0.0, 0.0, 0.0, 0.0)",0.254,-3.55147571753e-17,-0.29,"(1.2184696791468346e-07, 0.0, 0.0, 0.0, 1.2184696791468346e-07, 0.0, 0.0, 0.0, 1.2184696791468346e-07)",0.196133,0.34323275,8.2179727,"(8.999999999999999e-08, 0.0, 0.0, 0.0, 8.999999999999999e-08, 0.0, 0.0, 0.0, 8.999999999999999e-08)"
2018/07/18/15:57:02.233475,2424,1531943822,232897096,base_link,0.0,0.0,0.0,0.0,"(-1.0, 0.0, 0.0, 0.0, 0.0, 0.0, 0.0, 0.0, 0.0)",0.6,-0.049,-0.319,"(1.2184696791468346e-07, 0.0, 0.0, 0.0, 1.2184696791468346e-07, 0.0, 0.0, 0.0, 1.2184696791468346e-07)",0.1569064,0.38245935,8.95347145,"(8.999999999999999e-08, 0.0, 0.0, 0.0, 8.999999999999999e-08, 0.0, 0.0, 0.0, 8.999999999999999e-08)"
2018/07/18/15:57:02.366928,2425,1531943822,366381033,base_link,0.0,0.0,0.0,0.0,"(-1.0, 0.0, 0.0, 0.0, 0.0, 0.0, 0.0, 0.0, 0.0)",0.62,-0.097,-0.301,"(1.2184696791468346e-07, 0.0, 0.0, 0.0, 1.2184696791468346e-07, 0.0, 0.0, 0.0, 1.2184696791468346e-07)",0.3334261,0.28439285,9.30651085,"(8.999999999999999e-08, 0.0, 0.0, 0.0, 8.999999999999999e-08, 0.0, 0.0, 0.0, 8.999999999999999e-08)"
2018/07/18/15:57:02.454503,2426,1531943822,453020241,base_link,0.0,0.0,0.0,0.0,"(-1.0, 0.0, 0.0, 0.0, 0.0, 0.0, 0.0, 0.0, 0.0)",0.591,-0.144,-0.265,"(1.2184696791468346e-07, 0.0, 0.0, 0.0, 1.2184696791468346e-07, 0.0, 0.0, 0.0, 1.2184696791468346e-07)",0.5295591,0.22555295,10.2185293,"(8.999999999999999e-08, 0.0, 0.0, 0.0, 8.999999999999999e-08, 0.0, 0.0, 0.0, 8.999999999999999e-08)"
2018/07/18/15:57:02.557150,2427,1531943822,556663846,base_link,0.0,0.0,0.0,0.0,"(-1.0, 0.0, 0.0, 0.0, 0.0, 0.0, 0.0, 0.0, 0.0)",0.476,-0.158,-0.219,"(1.2184696791468346e-07, 0.0, 0.0, 0.0, 1.2184696791468346e-07, 0.0, 0.0, 0.0, 1.2184696791468346e-07)",0.65704555,0.14709975,10.14988275,"(8.999999999999999e-08, 0.0, 0.0, 0.0, 8.999999999999999e-08, 0.0, 0.0, 0.0, 8.999999999999999e-08)"
2018/07/18/15:57:02.651065,2428,1531943822,649934843,base_link,0.0,0.0,0.0,0.0,"(-1.0, 0.0, 0.0, 0.0, 0.0, 0.0, 0.0, 0.0, 0.0)",0.386,-0.2,-0.193,"(1.2184696791468346e-07, 0.0, 0.0, 0.0, 1.2184696791468346e-07, 0.0, 0.0, 0.0, 1.2184696791468346e-07)",0.8433719,0.2745862,10.71866845,"(8.999999999999999e-08, 0.0, 0.0, 0.0, 8.999999999999999e-08, 0.0, 0.0, 0.0, 8.999999999999999e-08)"
2018/07/18/15:57:02.754954,2429,1531943822,753594864,base_link,0.0,0.0,0.0,0.0,"(-1.0, 0.0, 0.0, 0.0, 0.0, 0.0, 0.0, 0.0, 0.0)",0.231,-0.24,-0.182,"(1.2184696791468346e-07, 0.0, 0.0, 0.0, 1.2184696791468346e-07, 0.0, 0.0, 0.0, 1.2184696791468346e-07)",0.73549875,0.71588545,10.97364135,"(8.999999999999999e-08, 0.0, 0.0, 0.0, 8.999999999999999e-08, 0.0, 0.0, 0.0, 8.999999999999999e-08)"
2018/07/18/15:57:02.886190,2430,1531943822,885138216,base_link,0.0,0.0,0.0,0.0,"(-1.0, 0.0, 0.0, 0.0, 0.0, 0.0, 0.0, 0.0, 0.0)",0.204,-0.265,-0.234,"(1.2184696791468346e-07, 0.0, 0.0, 0.0, 1.2184696791468346e-07, 0.0, 0.0, 0.0, 1.2184696791468346e-07)",0.91201845,1.0002783,12.18966595,"(8.999999999999999e-08, 0.0, 0.0, 0.0, 8.999999999999999e-08, 0.0, 0.0, 0.0, 8.999999999999999e-08)"
2018/07/18/15:57:02.963592,2431,1531943822,962375654,base_link,0.0,0.0,0.0,0.0,"(-1.0, 0.0, 0.0, 0.0, 0.0, 0.0, 0.0, 0.0, 0.0)",0.067,-0.263,-0.279,"(1.2184696791468346e-07, 0.0, 0.0, 0.0, 1.2184696791468346e-07, 0.0, 0.0, 0.0, 1.2184696791468346e-07)",1.2944778,0.89240515,12.4348322,"(8.999999999999999e-08, 0.0, 0.0, 0.0, 8.999999999999999e-08, 0.0, 0.0, 0.0, 8.999999999999999e-08)"
2018/07/18/15:57:03.069048,2432,1531943823,68411134,base_link,0.0,0.0,0.0,0.0,"(-1.0, 0.0, 0.0, 0.0, 0.0, 0.0, 0.0, 0.0, 0.0)",0.006,-0.215,-0.36,"(1.2184696791468346e-07, 0.0, 0.0, 0.0, 1.2184696791468346e-07, 0.0, 0.0, 0.0, 1.2184696791468346e-07)",1.372931,1.0198916,11.67972015,"(8.999999999999999e-08, 0.0, 0.0, 0.0, 8.999999999999999e-08, 0.0, 0.0, 0.0, 8.999999999999999e-08)"
2018/07/18/15:57:03.174097,2433,1531943823,173598018,base_link,0.0,0.0,0.0,0.0,"(-1.0, 0.0, 0.0, 0.0, 0.0, 0.0, 0.0, 0.0, 0.0)",0.053,-0.218,-0.463,"(1.2184696791468346e-07, 0.0, 0.0, 0.0, 1.2184696791468346e-07, 0.0, 0.0, 0.0, 1.2184696791468346e-07)",1.10815145,0.53936575,11.4541672,"(8.999999999999999e-08, 0.0, 0.0, 0.0, 8.999999999999999e-08, 0.0, 0.0, 0.0, 8.999999999999999e-08)"
2018/07/18/15:57:03.275311,2434,1531943823,274622330,base_link,0.0,0.0,0.0,0.0,"(-1.0, 0.0, 0.0, 0.0, 0.0, 0.0, 0.0, 0.0, 0.0)",0.022,-0.2,-0.461,"(1.2184696791468346e-07, 0.0, 0.0, 0.0, 1.2184696791468346e-07, 0.0, 0.0, 0.0, 1.2184696791468346e-07)",0.93163175,0.5295591,11.0226746,"(8.999999999999999e-08, 0.0, 0.0, 0.0, 8.999999999999999e-08, 0.0, 0.0, 0.0, 8.999999999999999e-08)"
2018/07/18/15:57:03.361188,2435,1531943823,359919957,base_link,0.0,0.0,0.0,0.0,"(-1.0, 0.0, 0.0, 0.0, 0.0, 0.0, 0.0, 0.0, 0.0)",0.107,-0.243,-0.449,"(1.2184696791468346e-07, 0.0, 0.0, 0.0, 1.2184696791468346e-07, 0.0, 0.0, 0.0, 1.2184696791468346e-07)",0.784532,0.5099458,11.58165365,"(8.999999999999999e-08, 0.0, 0.0, 0.0, 8.999999999999999e-08, 0.0, 0.0, 0.0, 8.999999999999999e-08)"
2018/07/18/15:57:03.497900,2436,1531943823,497268361,base_link,0.0,0.0,0.0,0.0,"(-1.0, 0.0, 0.0, 0.0, 0.0, 0.0, 0.0, 0.0, 0.0)",0.063,-0.331,-0.422,"(1.2184696791468346e-07, 0.0, 0.0, 0.0, 1.2184696791468346e-07, 0.0, 0.0, 0.0, 1.2184696791468346e-07)",0.65704555,0.44129925,11.44436055,"(8.999999999999999e-08, 0.0, 0.0, 0.0, 8.999999999999999e-08, 0.0, 0.0, 0.0, 8.999999999999999e-08)"
2018/07/18/15:57:03.553897,2437,1531943823,552635161,base_link,0.0,0.0,0.0,0.0,"(-1.0, 0.0, 0.0, 0.0, 0.0, 0.0, 0.0, 0.0, 0.0)",0.109,-0.346,-0.395,"(1.2184696791468346e-07, 0.0, 0.0, 0.0, 1.2184696791468346e-07, 0.0, 0.0, 0.0, 1.2184696791468346e-07)",0.71588545,0.34323275,11.87585315,"(8.999999999999999e-08, 0.0, 0.0, 0.0, 8.999999999999999e-08, 0.0, 0.0, 0.0, 8.999999999999999e-08)"
2018/07/18/15:57:03.654797,2438,1531943823,648741710,base_link,0.0,0.0,0.0,0.0,"(-1.0, 0.0, 0.0, 0.0, 0.0, 0.0, 0.0, 0.0, 0.0)",0.243,-0.366,-0.364,"(1.2184696791468346e-07, 0.0, 0.0, 0.0, 1.2184696791468346e-07, 0.0, 0.0, 0.0, 1.2184696791468346e-07)",0.61781895,0.28439285,12.56231865,"(8.999999999999999e-08, 0.0, 0.0, 0.0, 8.999999999999999e-08, 0.0, 0.0, 0.0, 8.999999999999999e-08)"
2018/07/18/15:57:03.749810,2439,1531943823,748958544,base_link,0.0,0.0,0.0,0.0,"(-1.0, 0.0, 0.0, 0.0, 0.0, 0.0, 0.0, 0.0, 0.0)",0.213,-0.435,-0.346,"(1.2184696791468346e-07, 0.0, 0.0, 0.0, 1.2184696791468346e-07, 0.0, 0.0, 0.0, 1.2184696791468346e-07)",0.91201845,0.0784532,12.8467115,"(8.999999999999999e-08, 0.0, 0.0, 0.0, 8.999999999999999e-08, 0.0, 0.0, 0.0, 8.999999999999999e-08)"
2018/07/18/15:57:03.839939,2440,1531943823,839312972,base_link,0.0,0.0,0.0,0.0,"(-1.0, 0.0, 0.0, 0.0, 0.0, 0.0, 0.0, 0.0, 0.0)",0.113,-0.487,-0.302,"(1.2184696791468346e-07, 0.0, 0.0, 0.0, 1.2184696791468346e-07, 0.0, 0.0, 0.0, 1.2184696791468346e-07)",0.9218251,0.0980665,13.2978174,"(8.999999999999999e-08, 0.0, 0.0, 0.0, 8.999999999999999e-08, 0.0, 0.0, 0.0, 8.999999999999999e-08)"
2018/07/18/15:57:04.012354,2441,1531943824,11300082,base_link,0.0,0.0,0.0,0.0,"(-1.0, 0.0, 0.0, 0.0, 0.0, 0.0, 0.0, 0.0, 0.0)",0.081,-0.518,-0.248,"(1.2184696791468346e-07, 0.0, 0.0, 0.0, 1.2184696791468346e-07, 0.0, 0.0, 0.0, 1.2184696791468346e-07)",1.08853815,0.3726527,14.2000292,"(8.999999999999999e-08, 0.0, 0.0, 0.0, 8.999999999999999e-08, 0.0, 0.0, 0.0, 8.999999999999999e-08)"
2018/07/18/15:57:04.065917,2442,1531943824,63691399,base_link,0.0,0.0,0.0,0.0,"(-1.0, 0.0, 0.0, 0.0, 0.0, 0.0, 0.0, 0.0, 0.0)",0.021,-0.479,-0.246,"(1.2184696791468346e-07, 0.0, 0.0, 0.0, 1.2184696791468346e-07, 0.0, 0.0, 0.0, 1.2184696791468346e-07)",0.97085835,0.42168595,14.60210185,"(8.999999999999999e-08, 0.0, 0.0, 0.0, 8.999999999999999e-08, 0.0, 0.0, 0.0, 8.999999999999999e-08)"
2018/07/18/15:57:04.142437,2443,1531943824,142040571,base_link,0.0,0.0,0.0,0.0,"(-1.0, 0.0, 0.0, 0.0, 0.0, 0.0, 0.0, 0.0, 0.0)",0.026,-0.434,-0.233,"(1.2184696791468346e-07, 0.0, 0.0, 0.0, 1.2184696791468346e-07, 0.0, 0.0, 0.0, 1.2184696791468346e-07)",0.9610517,0.6472389,14.8864947,"(8.999999999999999e-08, 0.0, 0.0, 0.0, 8.999999999999999e-08, 0.0, 0.0, 0.0, 8.999999999999999e-08)"
2018/07/18/15:57:04.249807,2444,1531943824,249245288,base_link,0.0,0.0,0.0,0.0,"(-1.0, 0.0, 0.0, 0.0, 0.0, 0.0, 0.0, 0.0, 0.0)",-0.012,-0.492,-0.231,"(1.2184696791468346e-07, 0.0, 0.0, 0.0, 1.2184696791468346e-07, 0.0, 0.0, 0.0, 1.2184696791468346e-07)",1.06892485,0.87279185,15.50431365,"(8.999999999999999e-08, 0.0, 0.0, 0.0, 8.999999999999999e-08, 0.0, 0.0, 0.0, 8.999999999999999e-08)"
2018/07/18/15:57:04.376007,2445,1531943824,371709400,base_link,0.0,0.0,0.0,0.0,"(-1.0, 0.0, 0.0, 0.0, 0.0, 0.0, 0.0, 0.0, 0.0)",0.067,-0.403,-0.28,"(1.2184696791468346e-07, 0.0, 0.0, 0.0, 1.2184696791468346e-07, 0.0, 0.0, 0.0, 1.2184696791468346e-07)",0.9414384,1.176798,14.513842,"(8.999999999999999e-08, 0.0, 0.0, 0.0, 8.999999999999999e-08, 0.0, 0.0, 0.0, 8.999999999999999e-08)"
2018/07/18/15:57:04.486802,2446,1531943824,486066284,base_link,0.0,0.0,0.0,0.0,"(-1.0, 0.0, 0.0, 0.0, 0.0, 0.0, 0.0, 0.0, 0.0)",0.187,-0.375,-0.36,"(1.2184696791468346e-07, 0.0, 0.0, 0.0, 1.2184696791468346e-07, 0.0, 0.0, 0.0, 1.2184696791468346e-07)",0.9022118,0.91201845,13.83718315,"(8.999999999999999e-08, 0.0, 0.0, 0.0, 8.999999999999999e-08, 0.0, 0.0, 0.0, 8.999999999999999e-08)"
2018/07/18/15:57:04.557465,2447,1531943824,556784351,base_link,0.0,0.0,0.0,0.0,"(-1.0, 0.0, 0.0, 0.0, 0.0, 0.0, 0.0, 0.0, 0.0)",0.328,-0.391,-0.388,"(1.2184696791468346e-07, 0.0, 0.0, 0.0, 1.2184696791468346e-07, 0.0, 0.0, 0.0, 1.2184696791468346e-07)",1.2552512,0.48052585,14.97475455,"(8.999999999999999e-08, 0.0, 0.0, 0.0, 8.999999999999999e-08, 0.0, 0.0, 0.0, 8.999999999999999e-08)"
2018/07/18/15:57:04.650640,2448,1531943824,650136696,base_link,0.0,0.0,0.0,0.0,"(-1.0, 0.0, 0.0, 0.0, 0.0, 0.0, 0.0, 0.0, 0.0)",0.1,-0.45,-0.353,"(1.2184696791468346e-07, 0.0, 0.0, 0.0, 1.2184696791468346e-07, 0.0, 0.0, 0.0, 1.2184696791468346e-07)",1.0198916,0.55897905,14.1411893,"(8.999999999999999e-08, 0.0, 0.0, 0.0, 8.999999999999999e-08, 0.0, 0.0, 0.0, 8.999999999999999e-08)"
2018/07/18/15:57:04.757319,2449,1531943824,756707309,base_link,0.0,0.0,0.0,0.0,"(-1.0, 0.0, 0.0, 0.0, 0.0, 0.0, 0.0, 0.0, 0.0)",-0.067,-0.579,-0.312,"(1.2184696791468346e-07, 0.0, 0.0, 0.0, 1.2184696791468346e-07, 0.0, 0.0, 0.0, 1.2184696791468346e-07)",1.0787315,0.392266,15.2395341,"(8.999999999999999e-08, 0.0, 0.0, 0.0, 8.999999999999999e-08, 0.0, 0.0, 0.0, 8.999999999999999e-08)"
2018/07/18/15:57:04.877833,2450,1531943824,877009592,base_link,0.0,0.0,0.0,0.0,"(-1.0, 0.0, 0.0, 0.0, 0.0, 0.0, 0.0, 0.0, 0.0)",-0.072,-0.604,-0.296,"(1.2184696791468346e-07, 0.0, 0.0, 0.0, 1.2184696791468346e-07, 0.0, 0.0, 0.0, 1.2184696791468346e-07)",1.55925735,0.4903325,15.69064,"(8.999999999999999e-08, 0.0, 0.0, 0.0, 8.999999999999999e-08, 0.0, 0.0, 0.0, 8.999999999999999e-08)"
2018/07/18/15:57:04.968783,2451,1531943824,965972903,base_link,0.0,0.0,0.0,0.0,"(-1.0, 0.0, 0.0, 0.0, 0.0, 0.0, 0.0, 0.0, 0.0)",-0.103,-0.549,-0.279,"(1.2184696791468346e-07, 0.0, 0.0, 0.0, 1.2184696791468346e-07, 0.0, 0.0, 0.0, 1.2184696791468346e-07)",1.40235095,0.6276256,15.85735305,"(8.999999999999999e-08, 0.0, 0.0, 0.0, 8.999999999999999e-08, 0.0, 0.0, 0.0, 8.999999999999999e-08)"
2018/07/18/15:57:05.052238,2452,1531943825,50055893,base_link,0.0,0.0,0.0,0.0,"(-1.0, 0.0, 0.0, 0.0, 0.0, 0.0, 0.0, 0.0, 0.0)",-0.096,-0.525,-0.287,"(1.2184696791468346e-07, 0.0, 0.0, 0.0, 1.2184696791468346e-07, 0.0, 0.0, 0.0, 1.2184696791468346e-07)",1.4906108,0.5295591,16.0240661,"(8.999999999999999e-08, 0.0, 0.0, 0.0, 8.999999999999999e-08, 0.0, 0.0, 0.0, 8.999999999999999e-08)"
2018/07/18/15:57:05.145647,2453,1531943825,143913482,base_link,0.0,0.0,0.0,0.0,"(-1.0, 0.0, 0.0, 0.0, 0.0, 0.0, 0.0, 0.0, 0.0)",-0.196,-0.366,-0.298,"(1.2184696791468346e-07, 0.0, 0.0, 0.0, 1.2184696791468346e-07, 0.0, 0.0, 0.0, 1.2184696791468346e-07)",1.1571847,0.95124505,14.8276548,"(8.999999999999999e-08, 0.0, 0.0, 0.0, 8.999999999999999e-08, 0.0, 0.0, 0.0, 8.999999999999999e-08)"
2018/07/18/15:57:05.243444,2454,1531943825,242914272,base_link,0.0,0.0,0.0,0.0,"(-1.0, 0.0, 0.0, 0.0, 0.0, 0.0, 0.0, 0.0, 0.0)",-0.319,-0.404,-0.333,"(1.2184696791468346e-07, 0.0, 0.0, 0.0, 1.2184696791468346e-07, 0.0, 0.0, 0.0, 1.2184696791468346e-07)",1.14737805,0.53936575,13.8469898,"(8.999999999999999e-08, 0.0, 0.0, 0.0, 8.999999999999999e-08, 0.0, 0.0, 0.0, 8.999999999999999e-08)"
2018/07/18/15:57:05.358649,2455,1531943825,358230540,base_link,0.0,0.0,0.0,0.0,"(-1.0, 0.0, 0.0, 0.0, 0.0, 0.0, 0.0, 0.0, 0.0)",-0.303,-0.413,-0.328,"(1.2184696791468346e-07, 0.0, 0.0, 0.0, 1.2184696791468346e-07, 0.0, 0.0, 0.0, 1.2184696791468346e-07)",1.10815145,0.67665885,15.89657965,"(8.999999999999999e-08, 0.0, 0.0, 0.0, 8.999999999999999e-08, 0.0, 0.0, 0.0, 8.999999999999999e-08)"
2018/07/18/15:57:05.451666,2456,1531943825,450990383,base_link,0.0,0.0,0.0,0.0,"(-1.0, 0.0, 0.0, 0.0, 0.0, 0.0, 0.0, 0.0, 0.0)",-0.363,-0.429,-0.319,"(1.2184696791468346e-07, 0.0, 0.0, 0.0, 1.2184696791468346e-07, 0.0, 0.0, 0.0, 1.2184696791468346e-07)",0.9414384,0.28439285,15.8279331,"(8.999999999999999e-08, 0.0, 0.0, 0.0, 8.999999999999999e-08, 0.0, 0.0, 0.0, 8.999999999999999e-08)"
2018/07/18/15:57:05.549848,2457,1531943825,549068208,base_link,0.0,0.0,0.0,0.0,"(-1.0, 0.0, 0.0, 0.0, 0.0, 0.0, 0.0, 0.0, 0.0)",-0.304,-0.411,-0.274,"(1.2184696791468346e-07, 0.0, 0.0, 0.0, 1.2184696791468346e-07, 0.0, 0.0, 0.0, 1.2184696791468346e-07)",1.02969825,0.26477955,15.62199345,"(8.999999999999999e-08, 0.0, 0.0, 0.0, 8.999999999999999e-08, 0.0, 0.0, 0.0, 8.999999999999999e-08)"
2018/07/18/15:57:05.651643,2458,1531943825,649021722,base_link,0.0,0.0,0.0,0.0,"(-1.0, 0.0, 0.0, 0.0, 0.0, 0.0, 0.0, 0.0, 0.0)",-0.334,-0.315,-0.226,"(1.2184696791468346e-07, 0.0, 0.0, 0.0, 1.2184696791468346e-07, 0.0, 0.0, 0.0, 1.2184696791468346e-07)",0.7060788,0.2941995,14.8864947,"(8.999999999999999e-08, 0.0, 0.0, 0.0, 8.999999999999999e-08, 0.0, 0.0, 0.0, 8.999999999999999e-08)"
2018/07/18/15:57:05.742031,2459,1531943825,741052870,base_link,0.0,0.0,0.0,0.0,"(-1.0, 0.0, 0.0, 0.0, 0.0, 0.0, 0.0, 0.0, 0.0)",-0.401,-0.41,-0.202,"(1.2184696791468346e-07, 0.0, 0.0, 0.0, 1.2184696791468346e-07, 0.0, 0.0, 0.0, 1.2184696791468346e-07)",0.3726527,0.5295591,14.317709,"(8.999999999999999e-08, 0.0, 0.0, 0.0, 8.999999999999999e-08, 0.0, 0.0, 0.0, 8.999999999999999e-08)"
2018/07/18/15:57:05.857840,2460,1531943825,857139880,base_link,0.0,0.0,0.0,0.0,"(-1.0, 0.0, 0.0, 0.0, 0.0, 0.0, 0.0, 0.0, 0.0)",-0.417,-0.416,-0.214,"(1.2184696791468346e-07, 0.0, 0.0, 0.0, 1.2184696791468346e-07, 0.0, 0.0, 0.0, 1.2184696791468346e-07)",0.4511059,0.63743225,14.8668814,"(8.999999999999999e-08, 0.0, 0.0, 0.0, 8.999999999999999e-08, 0.0, 0.0, 0.0, 8.999999999999999e-08)"
2018/07/18/15:57:05.966432,2461,1531943825,965759334,base_link,0.0,0.0,0.0,0.0,"(-1.0, 0.0, 0.0, 0.0, 0.0, 0.0, 0.0, 0.0, 0.0)",-0.491,-0.245,-0.201,"(1.2184696791468346e-07, 0.0, 0.0, 0.0, 1.2184696791468346e-07, 0.0, 0.0, 0.0, 1.2184696791468346e-07)",0.4314926,0.51975245,13.99408955,"(8.999999999999999e-08, 0.0, 0.0, 0.0, 8.999999999999999e-08, 0.0, 0.0, 0.0, 8.999999999999999e-08)"
2018/07/18/15:57:06.068767,2462,1531943826,67541051,base_link,0.0,0.0,0.0,0.0,"(-1.0, 0.0, 0.0, 0.0, 0.0, 0.0, 0.0, 0.0, 0.0)",-0.533,-0.228,-0.21,"(1.2184696791468346e-07, 0.0, 0.0, 0.0, 1.2184696791468346e-07, 0.0, 0.0, 0.0, 1.2184696791468346e-07)",0.20593965,0.34323275,12.5132854,"(8.999999999999999e-08, 0.0, 0.0, 0.0, 8.999999999999999e-08, 0.0, 0.0, 0.0, 8.999999999999999e-08)"
2018/07/18/15:57:06.157438,2463,1531943826,156942506,base_link,0.0,0.0,0.0,0.0,"(-1.0, 0.0, 0.0, 0.0, 0.0, 0.0, 0.0, 0.0, 0.0)",-0.61,-0.121,-0.192,"(1.2184696791468346e-07, 0.0, 0.0, 0.0, 1.2184696791468346e-07, 0.0, 0.0, 0.0, 1.2184696791468346e-07)",0.3334261,0.4903325,11.9248864,"(8.999999999999999e-08, 0.0, 0.0, 0.0, 8.999999999999999e-08, 0.0, 0.0, 0.0, 8.999999999999999e-08)"
2018/07/18/15:57:06.281119,2464,1531943826,280113496,base_link,0.0,0.0,0.0,0.0,"(-1.0, 0.0, 0.0, 0.0, 0.0, 0.0, 0.0, 0.0, 0.0)",-0.674,-0.066,-0.196,"(1.2184696791468346e-07, 0.0, 0.0, 0.0, 1.2184696791468346e-07, 0.0, 0.0, 0.0, 1.2184696791468346e-07)",0.20593965,0.46091255,11.0619012,"(8.999999999999999e-08, 0.0, 0.0, 0.0, 8.999999999999999e-08, 0.0, 0.0, 0.0, 8.999999999999999e-08)"
2018/07/18/15:57:06.396272,2465,1531943826,393829370,base_link,0.0,0.0,0.0,0.0,"(-1.0, 0.0, 0.0, 0.0, 0.0, 0.0, 0.0, 0.0, 0.0)",-0.652,-0.027,-0.193,"(1.2184696791468346e-07, 0.0, 0.0, 0.0, 1.2184696791468346e-07, 0.0, 0.0, 0.0, 1.2184696791468346e-07)",0.30400615,0.22555295,10.1596894,"(8.999999999999999e-08, 0.0, 0.0, 0.0, 8.999999999999999e-08, 0.0, 0.0, 0.0, 8.999999999999999e-08)"
2018/07/18/15:57:06.450223,2466,1531943826,449719207,base_link,0.0,0.0,0.0,0.0,"(-1.0, 0.0, 0.0, 0.0, 0.0, 0.0, 0.0, 0.0, 0.0)",-0.664,-0.001,-0.182,"(1.2184696791468346e-07, 0.0, 0.0, 0.0, 1.2184696791468346e-07, 0.0, 0.0, 0.0, 1.2184696791468346e-07)",0.2941995,0.22555295,10.1204628,"(8.999999999999999e-08, 0.0, 0.0, 0.0, 8.999999999999999e-08, 0.0, 0.0, 0.0, 8.999999999999999e-08)"
2018/07/18/15:57:06.558655,2467,1531943826,558143755,base_link,0.0,0.0,0.0,0.0,"(-1.0, 0.0, 0.0, 0.0, 0.0, 0.0, 0.0, 0.0, 0.0)",-0.589,-0.036,-0.164,"(1.2184696791468346e-07, 0.0, 0.0, 0.0, 1.2184696791468346e-07, 0.0, 0.0, 0.0, 1.2184696791468346e-07)",0.22555295,0.12748645,9.3947707,"(8.999999999999999e-08, 0.0, 0.0, 0.0, 8.999999999999999e-08, 0.0, 0.0, 0.0, 8.999999999999999e-08)"
2018/07/18/15:57:06.682196,2468,1531943826,680726944,base_link,0.0,0.0,0.0,0.0,"(-1.0, 0.0, 0.0, 0.0, 0.0, 0.0, 0.0, 0.0, 0.0)",-0.491,-0.089,-0.14,"(1.2184696791468346e-07, 0.0, 0.0, 0.0, 1.2184696791468346e-07, 0.0, 0.0, 0.0, 1.2184696791468346e-07)",0.51975245,1.4087357611e-15,11.50320045,"(8.999999999999999e-08, 0.0, 0.0, 0.0, 8.999999999999999e-08, 0.0, 0.0, 0.0, 8.999999999999999e-08)"
2018/07/18/15:57:06.779214,2469,1531943826,778625478,base_link,0.0,0.0,0.0,0.0,"(-1.0, 0.0, 0.0, 0.0, 0.0, 0.0, 0.0, 0.0, 0.0)",-0.459,-1.18790739517e-17,-0.097,"(1.2184696791468346e-07, 0.0, 0.0, 0.0, 1.2184696791468346e-07, 0.0, 0.0, 0.0, 1.2184696791468346e-07)",0.4903325,-0.00980665,11.3364874,"(8.999999999999999e-08, 0.0, 0.0, 0.0, 8.999999999999999e-08, 0.0, 0.0, 0.0, 8.999999999999999e-08)"
2018/07/18/15:57:06.887518,2470,1531943826,886840748,base_link,0.0,0.0,0.0,0.0,"(-1.0, 0.0, 0.0, 0.0, 0.0, 0.0, 0.0, 0.0, 0.0)",-0.41,0.028,-0.05,"(1.2184696791468346e-07, 0.0, 0.0, 0.0, 1.2184696791468346e-07, 0.0, 0.0, 0.0, 1.2184696791468346e-07)",0.40207265,0.3530394,10.07142955,"(8.999999999999999e-08, 0.0, 0.0, 0.0, 8.999999999999999e-08, 0.0, 0.0, 0.0, 8.999999999999999e-08)"
2018/07/18/15:57:06.989758,2471,1531943826,989166363,base_link,0.0,0.0,0.0,0.0,"(-1.0, 0.0, 0.0, 0.0, 0.0, 0.0, 0.0, 0.0, 0.0)",-0.412,0.001,-0.037,"(1.2184696791468346e-07, 0.0, 0.0, 0.0, 1.2184696791468346e-07, 0.0, 0.0, 0.0, 1.2184696791468346e-07)",0.53936575,0.2157463,9.4732239,"(8.999999999999999e-08, 0.0, 0.0, 0.0, 8.999999999999999e-08, 0.0, 0.0, 0.0, 8.999999999999999e-08)"
2018/07/18/15:57:07.060303,2472,1531943827,58385733,base_link,0.0,0.0,0.0,0.0,"(-1.0, 0.0, 0.0, 0.0, 0.0, 0.0, 0.0, 0.0, 0.0)",-0.367,-0.016,-0.019,"(1.2184696791468346e-07, 0.0, 0.0, 0.0, 1.2184696791468346e-07, 0.0, 0.0, 0.0, 1.2184696791468346e-07)",0.4511059,0.28439285,9.1397978,"(8.999999999999999e-08, 0.0, 0.0, 0.0, 8.999999999999999e-08, 0.0, 0.0, 0.0, 8.999999999999999e-08)"
2018/07/18/15:57:07.194178,2473,1531943827,193061832,base_link,0.0,0.0,0.0,0.0,"(-1.0, 0.0, 0.0, 0.0, 0.0, 0.0, 0.0, 0.0, 0.0)",-0.143,0.028,-0.044,"(1.2184696791468346e-07, 0.0, 0.0, 0.0, 1.2184696791468346e-07, 0.0, 0.0, 0.0, 1.2184696791468346e-07)",0.8237586,-0.1176798,8.85540495,"(8.999999999999999e-08, 0.0, 0.0, 0.0, 8.999999999999999e-08, 0.0, 0.0, 0.0, 8.999999999999999e-08)"
2018/07/18/15:57:07.243696,2474,1531943827,242626981,base_link,0.0,0.0,0.0,0.0,"(-1.0, 0.0, 0.0, 0.0, 0.0, 0.0, 0.0, 0.0, 0.0)",-0.14,-0.024,-0.03,"(1.2184696791468346e-07, 0.0, 0.0, 0.0, 1.2184696791468346e-07, 0.0, 0.0, 0.0, 1.2184696791468346e-07)",0.588399,0.10787315,9.16921775,"(8.999999999999999e-08, 0.0, 0.0, 0.0, 8.999999999999999e-08, 0.0, 0.0, 0.0, 8.999999999999999e-08)"
2018/07/18/15:57:07.355680,2475,1531943827,355018682,base_link,0.0,0.0,0.0,0.0,"(-1.0, 0.0, 0.0, 0.0, 0.0, 0.0, 0.0, 0.0, 0.0)",-0.166,-0.039,0.02,"(1.2184696791468346e-07, 0.0, 0.0, 0.0, 1.2184696791468346e-07, 0.0, 0.0, 0.0, 1.2184696791468346e-07)",1.0198916,-0.06864655,9.42419065,"(8.999999999999999e-08, 0.0, 0.0, 0.0, 8.999999999999999e-08, 0.0, 0.0, 0.0, 8.999999999999999e-08)"
2018/07/18/15:57:07.459020,2476,1531943827,457065104,base_link,0.0,0.0,0.0,0.0,"(-1.0, 0.0, 0.0, 0.0, 0.0, 0.0, 0.0, 0.0, 0.0)",-0.188,-0.023,0.06,"(1.2184696791468346e-07, 0.0, 0.0, 0.0, 1.2184696791468346e-07, 0.0, 0.0, 0.0, 1.2184696791468346e-07)",0.8433719,0.04903325,10.03220295,"(8.999999999999999e-08, 0.0, 0.0, 0.0, 8.999999999999999e-08, 0.0, 0.0, 0.0, 8.999999999999999e-08)"
2018/07/18/15:57:07.578318,2477,1531943827,577815134,base_link,0.0,0.0,0.0,0.0,"(-1.0, 0.0, 0.0, 0.0, 0.0, 0.0, 0.0, 0.0, 0.0)",-0.167,0.087,0.099,"(1.2184696791468346e-07, 0.0, 0.0, 0.0, 1.2184696791468346e-07, 0.0, 0.0, 0.0, 1.2184696791468346e-07)",0.8237586,0.1176798,9.0809579,"(8.999999999999999e-08, 0.0, 0.0, 0.0, 8.999999999999999e-08, 0.0, 0.0, 0.0, 8.999999999999999e-08)"
2018/07/18/15:57:07.628433,2478,1531943827,626790786,base_link,0.0,0.0,0.0,0.0,"(-1.0, 0.0, 0.0, 0.0, 0.0, 0.0, 0.0, 0.0, 0.0)",-0.103,0.129,0.109,"(1.2184696791468346e-07, 0.0, 0.0, 0.0, 1.2184696791468346e-07, 0.0, 0.0, 0.0, 1.2184696791468346e-07)",1.1375714,-0.06864655,8.5513988,"(8.999999999999999e-08, 0.0, 0.0, 0.0, 8.999999999999999e-08, 0.0, 0.0, 0.0, 8.999999999999999e-08)"
2018/07/18/15:57:07.758860,2479,1531943827,758208013,base_link,0.0,0.0,0.0,0.0,"(-1.0, 0.0, 0.0, 0.0, 0.0, 0.0, 0.0, 0.0, 0.0)",-0.044,0.076,0.131,"(1.2184696791468346e-07, 0.0, 0.0, 0.0, 1.2184696791468346e-07, 0.0, 0.0, 0.0, 1.2184696791468346e-07)",1.10815145,0.02941995,8.1002929,"(8.999999999999999e-08, 0.0, 0.0, 0.0, 8.999999999999999e-08, 0.0, 0.0, 0.0, 8.999999999999999e-08)"
2018/07/18/15:57:07.832778,2480,1531943827,832009727,base_link,0.0,0.0,0.0,0.0,"(-1.0, 0.0, 0.0, 0.0, 0.0, 0.0, 0.0, 0.0, 0.0)",-0.084,0.037,0.13,"(1.2184696791468346e-07, 0.0, 0.0, 0.0, 1.2184696791468346e-07, 0.0, 0.0, 0.0, 1.2184696791468346e-07)",1.1375714,-0.0784532,8.1983594,"(8.999999999999999e-08, 0.0, 0.0, 0.0, 8.999999999999999e-08, 0.0, 0.0, 0.0, 8.999999999999999e-08)"
2018/07/18/15:57:07.973110,2481,1531943827,972515194,base_link,0.0,0.0,0.0,0.0,"(-1.0, 0.0, 0.0, 0.0, 0.0, 0.0, 0.0, 0.0, 0.0)",-0.063,0.047,0.11,"(1.2184696791468346e-07, 0.0, 0.0, 0.0, 1.2184696791468346e-07, 0.0, 0.0, 0.0, 1.2184696791468346e-07)",1.06892485,-0.0196133,7.8845466,"(8.999999999999999e-08, 0.0, 0.0, 0.0, 8.999999999999999e-08, 0.0, 0.0, 0.0, 8.999999999999999e-08)"
2018/07/18/15:57:08.060085,2482,1531943828,59400459,base_link,0.0,0.0,0.0,0.0,"(-1.0, 0.0, 0.0, 0.0, 0.0, 0.0, 0.0, 0.0, 0.0)",-0.043,0.035,0.096,"(1.2184696791468346e-07, 0.0, 0.0, 0.0, 1.2184696791468346e-07, 0.0, 0.0, 0.0, 1.2184696791468346e-07)",1.0198916,0.24516625,7.95319315,"(8.999999999999999e-08, 0.0, 0.0, 0.0, 8.999999999999999e-08, 0.0, 0.0, 0.0, 8.999999999999999e-08)"
2018/07/18/15:57:08.208287,2483,1531943828,207429133,base_link,0.0,0.0,0.0,0.0,"(-1.0, 0.0, 0.0, 0.0, 0.0, 0.0, 0.0, 0.0, 0.0)",-0.199,0.033,0.095,"(1.2184696791468346e-07, 0.0, 0.0, 0.0, 1.2184696791468346e-07, 0.0, 0.0, 0.0, 1.2184696791468346e-07)",1.16699135,0.20593965,9.20844435,"(8.999999999999999e-08, 0.0, 0.0, 0.0, 8.999999999999999e-08, 0.0, 0.0, 0.0, 8.999999999999999e-08)"
2018/07/18/15:57:08.286246,2484,1531943828,285054417,base_link,0.0,0.0,0.0,0.0,"(-1.0, 0.0, 0.0, 0.0, 0.0, 0.0, 0.0, 0.0, 0.0)",-0.262,0.055,0.112,"(1.2184696791468346e-07, 0.0, 0.0, 0.0, 1.2184696791468346e-07, 0.0, 0.0, 0.0, 1.2184696791468346e-07)",1.2160246,0.2549729,9.5516771,"(8.999999999999999e-08, 0.0, 0.0, 0.0, 8.999999999999999e-08, 0.0, 0.0, 0.0, 8.999999999999999e-08)"
2018/07/18/15:57:08.374393,2485,1531943828,373716237,base_link,0.0,0.0,0.0,0.0,"(-1.0, 0.0, 0.0, 0.0, 0.0, 0.0, 0.0, 0.0, 0.0)",-0.225,0.106,0.128,"(1.2184696791468346e-07, 0.0, 0.0, 0.0, 1.2184696791468346e-07, 0.0, 0.0, 0.0, 1.2184696791468346e-07)",1.3337044,0.2549729,8.9828914,"(8.999999999999999e-08, 0.0, 0.0, 0.0, 8.999999999999999e-08, 0.0, 0.0, 0.0, 8.999999999999999e-08)"
2018/07/18/15:57:08.467461,2486,1531943828,464496528,base_link,0.0,0.0,0.0,0.0,"(-1.0, 0.0, 0.0, 0.0, 0.0, 0.0, 0.0, 0.0, 0.0)",0.037,0.13,0.08,"(1.2184696791468346e-07, 0.0, 0.0, 0.0, 1.2184696791468346e-07, 0.0, 0.0, 0.0, 1.2184696791468346e-07)",1.2748645,0.1372931,9.1397978,"(8.999999999999999e-08, 0.0, 0.0, 0.0, 8.999999999999999e-08, 0.0, 0.0, 0.0, 8.999999999999999e-08)"
2018/07/18/15:57:08.551438,2487,1531943828,550751946,base_link,0.0,0.0,0.0,0.0,"(-1.0, 0.0, 0.0, 0.0, 0.0, 0.0, 0.0, 0.0, 0.0)",0.23,0.102,0.067,"(1.2184696791468346e-07, 0.0, 0.0, 0.0, 1.2184696791468346e-07, 0.0, 0.0, 0.0, 1.2184696791468346e-07)",1.1964113,9.69181380402e-16,7.91396655,"(8.999999999999999e-08, 0.0, 0.0, 0.0, 8.999999999999999e-08, 0.0, 0.0, 0.0, 8.999999999999999e-08)"
2018/07/18/15:57:08.651122,2488,1531943828,650479774,base_link,0.0,0.0,0.0,0.0,"(-1.0, 0.0, 0.0, 0.0, 0.0, 0.0, 0.0, 0.0, 0.0)",0.312,0.039,0.102,"(1.2184696791468346e-07, 0.0, 0.0, 0.0, 1.2184696791468346e-07, 0.0, 0.0, 0.0, 1.2184696791468346e-07)",1.04931155,-0.0588399,7.97280645,"(8.999999999999999e-08, 0.0, 0.0, 0.0, 8.999999999999999e-08, 0.0, 0.0, 0.0, 8.999999999999999e-08)"
2018/07/18/15:57:08.797957,2489,1531943828,797048209,base_link,0.0,0.0,0.0,0.0,"(-1.0, 0.0, 0.0, 0.0, 0.0, 0.0, 0.0, 0.0, 0.0)",0.315,-0.01,0.13,"(1.2184696791468346e-07, 0.0, 0.0, 0.0, 1.2184696791468346e-07, 0.0, 0.0, 0.0, 1.2184696791468346e-07)",1.2944778,-0.2353596,8.54159215,"(8.999999999999999e-08, 0.0, 0.0, 0.0, 8.999999999999999e-08, 0.0, 0.0, 0.0, 8.999999999999999e-08)"
2018/07/18/15:57:08.860945,2490,1531943828,858978551,base_link,0.0,0.0,0.0,0.0,"(-1.0, 0.0, 0.0, 0.0, 0.0, 0.0, 0.0, 0.0, 0.0)",0.329,-0.047,0.149,"(1.2184696791468346e-07, 0.0, 0.0, 0.0, 1.2184696791468346e-07, 0.0, 0.0, 0.0, 1.2184696791468346e-07)",1.2748645,0.06864655,9.218251,"(8.999999999999999e-08, 0.0, 0.0, 0.0, 8.999999999999999e-08, 0.0, 0.0, 0.0, 8.999999999999999e-08)"
2018/07/18/15:57:08.950267,2491,1531943828,949591451,base_link,0.0,0.0,0.0,0.0,"(-1.0, 0.0, 0.0, 0.0, 0.0, 0.0, 0.0, 0.0, 0.0)",0.226,0.015,0.144,"(1.2184696791468346e-07, 0.0, 0.0, 0.0, 1.2184696791468346e-07, 0.0, 0.0, 0.0, 1.2184696791468346e-07)",1.1571847,0.22555295,9.5124505,"(8.999999999999999e-08, 0.0, 0.0, 0.0, 8.999999999999999e-08, 0.0, 0.0, 0.0, 8.999999999999999e-08)"
2018/07/18/15:57:09.031890,2492,1531943829,31233615,base_link,0.0,0.0,0.0,0.0,"(-1.0, 0.0, 0.0, 0.0, 0.0, 0.0, 0.0, 0.0, 0.0)",0.307,0.045,0.133,"(1.2184696791468346e-07, 0.0, 0.0, 0.0, 1.2184696791468346e-07, 0.0, 0.0, 0.0, 1.2184696791468346e-07)",1.20621795,0.2549729,9.56148375,"(8.999999999999999e-08, 0.0, 0.0, 0.0, 8.999999999999999e-08, 0.0, 0.0, 0.0, 8.999999999999999e-08)"
2018/07/18/15:57:09.149207,2493,1531943829,144086020,base_link,0.0,0.0,0.0,0.0,"(-1.0, 0.0, 0.0, 0.0, 0.0, 0.0, 0.0, 0.0, 0.0)",0.34,0.066,0.103,"(1.2184696791468346e-07, 0.0, 0.0, 0.0, 1.2184696791468346e-07, 0.0, 0.0, 0.0, 1.2184696791468346e-07)",1.3533177,0.2353596,9.65955025,"(8.999999999999999e-08, 0.0, 0.0, 0.0, 8.999999999999999e-08, 0.0, 0.0, 0.0, 8.999999999999999e-08)"
2018/07/18/15:57:09.276501,2494,1531943829,267913523,base_link,0.0,0.0,0.0,0.0,"(-1.0, 0.0, 0.0, 0.0, 0.0, 0.0, 0.0, 0.0, 0.0)",0.381,0.088,0.07,"(1.2184696791468346e-07, 0.0, 0.0, 0.0, 1.2184696791468346e-07, 0.0, 0.0, 0.0, 1.2184696791468346e-07)",1.30428445,0.1372931,9.6497436,"(8.999999999999999e-08, 0.0, 0.0, 0.0, 8.999999999999999e-08, 0.0, 0.0, 0.0, 8.999999999999999e-08)"
2018/07/18/15:57:09.357298,2495,1531943829,356645713,base_link,0.0,0.0,0.0,0.0,"(-1.0, 0.0, 0.0, 0.0, 0.0, 0.0, 0.0, 0.0, 0.0)",0.264,0.039,0.055,"(1.2184696791468346e-07, 0.0, 0.0, 0.0, 1.2184696791468346e-07, 0.0, 0.0, 0.0, 1.2184696791468346e-07)",1.2160246,0.2941995,9.91452315,"(8.999999999999999e-08, 0.0, 0.0, 0.0, 8.999999999999999e-08, 0.0, 0.0, 0.0, 8.999999999999999e-08)"
2018/07/18/15:57:09.452730,2496,1531943829,451648385,base_link,0.0,0.0,0.0,0.0,"(-1.0, 0.0, 0.0, 0.0, 0.0, 0.0, 0.0, 0.0, 0.0)",0.138,0.049,0.064,"(1.2184696791468346e-07, 0.0, 0.0, 0.0, 1.2184696791468346e-07, 0.0, 0.0, 0.0, 1.2184696791468346e-07)",1.0983448,0.81395195,10.002783,"(8.999999999999999e-08, 0.0, 0.0, 0.0, 8.999999999999999e-08, 0.0, 0.0, 0.0, 8.999999999999999e-08)"
2018/07/18/15:57:09.551574,2497,1531943829,550724384,base_link,0.0,0.0,0.0,0.0,"(-1.0, 0.0, 0.0, 0.0, 0.0, 0.0, 0.0, 0.0, 0.0)",0.261,0.018,-0.035,"(1.2184696791468346e-07, 0.0, 0.0, 0.0, 1.2184696791468346e-07, 0.0, 0.0, 0.0, 1.2184696791468346e-07)",0.95124505,0.48052585,8.75733845,"(8.999999999999999e-08, 0.0, 0.0, 0.0, 8.999999999999999e-08, 0.0, 0.0, 0.0, 8.999999999999999e-08)"
2018/07/18/15:57:09.641897,2498,1531943829,639473342,base_link,0.0,0.0,0.0,0.0,"(-1.0, 0.0, 0.0, 0.0, 0.0, 0.0, 0.0, 0.0, 0.0)",0.191,0.014,-0.092,"(1.2184696791468346e-07, 0.0, 0.0, 0.0, 1.2184696791468346e-07, 0.0, 0.0, 0.0, 1.2184696791468346e-07)",0.784532,0.32361945,8.40429905,"(8.999999999999999e-08, 0.0, 0.0, 0.0, 8.999999999999999e-08, 0.0, 0.0, 0.0, 8.999999999999999e-08)"
2018/07/18/15:57:09.760801,2499,1531943829,760071348,base_link,0.0,0.0,0.0,0.0,"(-1.0, 0.0, 0.0, 0.0, 0.0, 0.0, 0.0, 0.0, 0.0)",0.115,-0.085,-0.078,"(1.2184696791468346e-07, 0.0, 0.0, 0.0, 1.2184696791468346e-07, 0.0, 0.0, 0.0, 1.2184696791468346e-07)",0.8237586,0.36284605,9.73800345,"(8.999999999999999e-08, 0.0, 0.0, 0.0, 8.999999999999999e-08, 0.0, 0.0, 0.0, 8.999999999999999e-08)"
2018/07/18/15:57:09.850236,2500,1531943829,848439862,base_link,0.0,0.0,0.0,0.0,"(-1.0, 0.0, 0.0, 0.0, 0.0, 0.0, 0.0, 0.0, 0.0)",0.032,-0.133,-0.095,"(1.2184696791468346e-07, 0.0, 0.0, 0.0, 1.2184696791468346e-07, 0.0, 0.0, 0.0, 1.2184696791468346e-07)",0.75511205,0.75511205,11.6503002,"(8.999999999999999e-08, 0.0, 0.0, 0.0, 8.999999999999999e-08, 0.0, 0.0, 0.0, 8.999999999999999e-08)"
2018/07/18/15:57:09.974336,2501,1531943829,973845394,base_link,0.0,0.0,0.0,0.0,"(-1.0, 0.0, 0.0, 0.0, 0.0, 0.0, 0.0, 0.0, 0.0)",0.502,-0.011,-0.152,"(1.2184696791468346e-07, 0.0, 0.0, 0.0, 1.2184696791468346e-07, 0.0, 0.0, 0.0, 1.2184696791468346e-07)",0.63743225,0.784532,6.58026215,"(8.999999999999999e-08, 0.0, 0.0, 0.0, 8.999999999999999e-08, 0.0, 0.0, 0.0, 8.999999999999999e-08)"
2018/07/18/15:57:10.046875,2502,1531943830,45834654,base_link,0.0,0.0,0.0,0.0,"(-1.0, 0.0, 0.0, 0.0, 0.0, 0.0, 0.0, 0.0, 0.0)",0.366,-0.028,-0.157,"(1.2184696791468346e-07, 0.0, 0.0, 0.0, 1.2184696791468346e-07, 0.0, 0.0, 0.0, 1.2184696791468346e-07)",0.6276256,1.2356379,6.1781895,"(8.999999999999999e-08, 0.0, 0.0, 0.0, 8.999999999999999e-08, 0.0, 0.0, 0.0, 8.999999999999999e-08)"
2018/07/18/15:57:10.171169,2503,1531943830,170088203,base_link,0.0,0.0,0.0,0.0,"(-1.0, 0.0, 0.0, 0.0, 0.0, 0.0, 0.0, 0.0, 0.0)",-0.173,-0.116,-0.303,"(1.2184696791468346e-07, 0.0, 0.0, 0.0, 1.2184696791468346e-07, 0.0, 0.0, 0.0, 1.2184696791468346e-07)",0.6276256,0.61781895,12.6701918,"(8.999999999999999e-08, 0.0, 0.0, 0.0, 8.999999999999999e-08, 0.0, 0.0, 0.0, 8.999999999999999e-08)"
2018/07/18/15:57:10.242736,2504,1531943830,242196951,base_link,0.0,0.0,0.0,0.0,"(-1.0, 0.0, 0.0, 0.0, 0.0, 0.0, 0.0, 0.0, 0.0)",-0.101,-0.042,-0.318,"(1.2184696791468346e-07, 0.0, 0.0, 0.0, 1.2184696791468346e-07, 0.0, 0.0, 0.0, 1.2184696791468346e-07)",0.5295591,0.63743225,11.97391965,"(8.999999999999999e-08, 0.0, 0.0, 0.0, 8.999999999999999e-08, 0.0, 0.0, 0.0, 8.999999999999999e-08)"
2018/07/18/15:57:10.363216,2505,1531943830,362743313,base_link,0.0,0.0,0.0,0.0,"(-1.0, 0.0, 0.0, 0.0, 0.0, 0.0, 0.0, 0.0, 0.0)",0.051,0.022,-0.351,"(1.2184696791468346e-07, 0.0, 0.0, 0.0, 1.2184696791468346e-07, 0.0, 0.0, 0.0, 1.2184696791468346e-07)",0.588399,0.06864655,10.40485565,"(8.999999999999999e-08, 0.0, 0.0, 0.0, 8.999999999999999e-08, 0.0, 0.0, 0.0, 8.999999999999999e-08)"
2018/07/18/15:57:10.485823,2506,1531943830,483136909,base_link,0.0,0.0,0.0,0.0,"(-1.0, 0.0, 0.0, 0.0, 0.0, 0.0, 0.0, 0.0, 0.0)",0.057,-0.042,-0.272,"(1.2184696791468346e-07, 0.0, 0.0, 0.0, 1.2184696791468346e-07, 0.0, 0.0, 0.0, 1.2184696791468346e-07)",0.4118793,-0.0196133,9.58109705,"(8.999999999999999e-08, 0.0, 0.0, 0.0, 8.999999999999999e-08, 0.0, 0.0, 0.0, 8.999999999999999e-08)"
2018/07/18/15:57:10.582673,2507,1531943830,579500463,base_link,0.0,0.0,0.0,0.0,"(-1.0, 0.0, 0.0, 0.0, 0.0, 0.0, 0.0, 0.0, 0.0)",0.075,0.014,-0.219,"(1.2184696791468346e-07, 0.0, 0.0, 0.0, 1.2184696791468346e-07, 0.0, 0.0, 0.0, 1.2184696791468346e-07)",0.2941995,-0.0784532,8.87501825,"(8.999999999999999e-08, 0.0, 0.0, 0.0, 8.999999999999999e-08, 0.0, 0.0, 0.0, 8.999999999999999e-08)"
2018/07/18/15:57:10.666223,2508,1531943830,665714222,base_link,0.0,0.0,0.0,0.0,"(-1.0, 0.0, 0.0, 0.0, 0.0, 0.0, 0.0, 0.0, 0.0)",0.037,-0.057,-0.188,"(1.2184696791468346e-07, 0.0, 0.0, 0.0, 1.2184696791468346e-07, 0.0, 0.0, 0.0, 1.2184696791468346e-07)",0.28439285,-0.2941995,7.83551335,"(8.999999999999999e-08, 0.0, 0.0, 0.0, 8.999999999999999e-08, 0.0, 0.0, 0.0, 8.999999999999999e-08)"
2018/07/18/15:57:10.759290,2509,1531943830,757353131,base_link,0.0,0.0,0.0,0.0,"(-1.0, 0.0, 0.0, 0.0, 0.0, 0.0, 0.0, 0.0, 0.0)",0.051,-0.122,-0.12,"(1.2184696791468346e-07, 0.0, 0.0, 0.0, 1.2184696791468346e-07, 0.0, 0.0, 0.0, 1.2184696791468346e-07)",0.0196133,-0.196133,9.11037785,"(8.999999999999999e-08, 0.0, 0.0, 0.0, 8.999999999999999e-08, 0.0, 0.0, 0.0, 8.999999999999999e-08)"
2018/07/18/15:57:10.858521,2510,1531943830,858043192,base_link,0.0,0.0,0.0,0.0,"(-1.0, 0.0, 0.0, 0.0, 0.0, 0.0, 0.0, 0.0, 0.0)",0.117,-0.122,-0.065,"(1.2184696791468346e-07, 0.0, 0.0, 0.0, 1.2184696791468346e-07, 0.0, 0.0, 0.0, 1.2184696791468346e-07)",0.04903325,-0.3530394,10.0812362,"(8.999999999999999e-08, 0.0, 0.0, 0.0, 8.999999999999999e-08, 0.0, 0.0, 0.0, 8.999999999999999e-08)"
2018/07/18/15:57:10.950631,2511,1531943830,950104272,base_link,0.0,0.0,0.0,0.0,"(-1.0, 0.0, 0.0, 0.0, 0.0, 0.0, 0.0, 0.0, 0.0)",0.149,-0.121,0.027,"(1.2184696791468346e-07, 0.0, 0.0, 0.0, 1.2184696791468346e-07, 0.0, 0.0, 0.0, 1.2184696791468346e-07)",0.20593965,-0.18632635,10.99325465,"(8.999999999999999e-08, 0.0, 0.0, 0.0, 8.999999999999999e-08, 0.0, 0.0, 0.0, 8.999999999999999e-08)"
2018/07/18/15:57:11.059473,2512,1531943831,56875220,base_link,0.0,0.0,0.0,0.0,"(-1.0, 0.0, 0.0, 0.0, 0.0, 0.0, 0.0, 0.0, 0.0)",0.089,-0.139,0.095,"(1.2184696791468346e-07, 0.0, 0.0, 0.0, 1.2184696791468346e-07, 0.0, 0.0, 0.0, 1.2184696791468346e-07)",0.5687857,-0.1372931,9.63993695,"(8.999999999999999e-08, 0.0, 0.0, 0.0, 8.999999999999999e-08, 0.0, 0.0, 0.0, 8.999999999999999e-08)"
2018/07/18/15:57:11.186167,2513,1531943831,182744016,base_link,0.0,0.0,0.0,0.0,"(-1.0, 0.0, 0.0, 0.0, 0.0, 0.0, 0.0, 0.0, 0.0)",-0.127,-0.145,0.125,"(1.2184696791468346e-07, 0.0, 0.0, 0.0, 1.2184696791468346e-07, 0.0, 0.0, 0.0, 1.2184696791468346e-07)",0.63743225,-0.04903325,13.11149105,"(8.999999999999999e-08, 0.0, 0.0, 0.0, 8.999999999999999e-08, 0.0, 0.0, 0.0, 8.999999999999999e-08)"
2018/07/18/15:57:11.259517,2514,1531943831,258639375,base_link,0.0,0.0,0.0,0.0,"(-1.0, 0.0, 0.0, 0.0, 0.0, 0.0, 0.0, 0.0, 0.0)",-0.204,-0.089,0.175,"(1.2184696791468346e-07, 0.0, 0.0, 0.0, 1.2184696791468346e-07, 0.0, 0.0, 0.0, 1.2184696791468346e-07)",0.99047165,-0.10787315,11.5326204,"(8.999999999999999e-08, 0.0, 0.0, 0.0, 8.999999999999999e-08, 0.0, 0.0, 0.0, 8.999999999999999e-08)"
2018/07/18/15:57:11.353405,2515,1531943831,352651088,base_link,0.0,0.0,0.0,0.0,"(-1.0, 0.0, 0.0, 0.0, 0.0, 0.0, 0.0, 0.0, 0.0)",-0.368,-0.124,0.159,"(1.2184696791468346e-07, 0.0, 0.0, 0.0, 1.2184696791468346e-07, 0.0, 0.0, 0.0, 1.2184696791468346e-07)",0.8629852,0.18632635,12.05237285,"(8.999999999999999e-08, 0.0, 0.0, 0.0, 8.999999999999999e-08, 0.0, 0.0, 0.0, 8.999999999999999e-08)"
2018/07/18/15:57:11.457056,2516,1531943831,454410451,base_link,0.0,0.0,0.0,0.0,"(-1.0, 0.0, 0.0, 0.0, 0.0, 0.0, 0.0, 0.0, 0.0)",-0.388,-0.12,0.153,"(1.2184696791468346e-07, 0.0, 0.0, 0.0, 1.2184696791468346e-07, 0.0, 0.0, 0.0, 1.2184696791468346e-07)",0.9022118,0.4511059,12.81729155,"(8.999999999999999e-08, 0.0, 0.0, 0.0, 8.999999999999999e-08, 0.0, 0.0, 0.0, 8.999999999999999e-08)"
2018/07/18/15:57:11.573584,2517,1531943831,572913321,base_link,0.0,0.0,0.0,0.0,"(-1.0, 0.0, 0.0, 0.0, 0.0, 0.0, 0.0, 0.0, 0.0)",-0.478,-0.015,0.116,"(1.2184696791468346e-07, 0.0, 0.0, 0.0, 1.2184696791468346e-07, 0.0, 0.0, 0.0, 1.2184696791468346e-07)",0.9022118,0.7649187,11.66010685,"(8.999999999999999e-08, 0.0, 0.0, 0.0, 8.999999999999999e-08, 0.0, 0.0, 0.0, 8.999999999999999e-08)"
2018/07/18/15:57:11.665135,2518,1531943831,663202328,base_link,0.0,0.0,0.0,0.0,"(-1.0, 0.0, 0.0, 0.0, 0.0, 0.0, 0.0, 0.0, 0.0)",-0.28,0.055,0.001,"(1.2184696791468346e-07, 0.0, 0.0, 0.0, 1.2184696791468346e-07, 0.0, 0.0, 0.0, 1.2184696791468346e-07)",0.8041453,0.980665,11.7091401,"(8.999999999999999e-08, 0.0, 0.0, 0.0, 8.999999999999999e-08, 0.0, 0.0, 0.0, 8.999999999999999e-08)"
2018/07/18/15:57:11.777515,2519,1531943831,775224605,base_link,0.0,0.0,0.0,0.0,"(-1.0, 0.0, 0.0, 0.0, 0.0, 0.0, 0.0, 0.0, 0.0)",-0.148,0.147,-0.126,"(1.2184696791468346e-07, 0.0, 0.0, 0.0, 1.2184696791468346e-07, 0.0, 0.0, 0.0, 1.2184696791468346e-07)",0.32361945,0.67665885,8.9632781,"(8.999999999999999e-08, 0.0, 0.0, 0.0, 8.999999999999999e-08, 0.0, 0.0, 0.0, 8.999999999999999e-08)"
2018/07/18/15:57:11.874461,2520,1531943831,873878470,base_link,0.0,0.0,0.0,0.0,"(-1.0, 0.0, 0.0, 0.0, 0.0, 0.0, 0.0, 0.0, 0.0)",-0.037,0.161,-0.186,"(1.2184696791468346e-07, 0.0, 0.0, 0.0, 1.2184696791468346e-07, 0.0, 0.0, 0.0, 1.2184696791468346e-07)",0.2941995,0.3138128,7.97280645,"(8.999999999999999e-08, 0.0, 0.0, 0.0, 8.999999999999999e-08, 0.0, 0.0, 0.0, 8.999999999999999e-08)"
2018/07/18/15:57:11.952096,2521,1531943831,949357610,base_link,0.0,0.0,0.0,0.0,"(-1.0, 0.0, 0.0, 0.0, 0.0, 0.0, 0.0, 0.0, 0.0)",-0.004,0.092,-0.182,"(1.2184696791468346e-07, 0.0, 0.0, 0.0, 1.2184696791468346e-07, 0.0, 0.0, 0.0, 1.2184696791468346e-07)",0.16671305,0.04903325,7.24711435,"(8.999999999999999e-08, 0.0, 0.0, 0.0, 8.999999999999999e-08, 0.0, 0.0, 0.0, 8.999999999999999e-08)"
2018/07/18/15:57:12.069652,2522,1531943832,68964660,base_link,0.0,0.0,0.0,0.0,"(-1.0, 0.0, 0.0, 0.0, 0.0, 0.0, 0.0, 0.0, 0.0)",0.127,-0.013,-0.121,"(1.2184696791468346e-07, 0.0, 0.0, 0.0, 1.2184696791468346e-07, 0.0, 0.0, 0.0, 1.2184696791468346e-07)",0.5099458,-0.50013915,9.2378643,"(8.999999999999999e-08, 0.0, 0.0, 0.0, 8.999999999999999e-08, 0.0, 0.0, 0.0, 8.999999999999999e-08)"
2018/07/18/15:57:12.176218,2523,1531943832,172159944,base_link,0.0,0.0,0.0,0.0,"(-1.0, 0.0, 0.0, 0.0, 0.0, 0.0, 0.0, 0.0, 0.0)",0.157,0.038,-0.027,"(1.2184696791468346e-07, 0.0, 0.0, 0.0, 1.2184696791468346e-07, 0.0, 0.0, 0.0, 1.2184696791468346e-07)",0.4511059,-0.48052585,8.46313895,"(8.999999999999999e-08, 0.0, 0.0, 0.0, 8.999999999999999e-08, 0.0, 0.0, 0.0, 8.999999999999999e-08)"
2018/07/18/15:57:12.259684,2524,1531943832,258936132,base_link,0.0,0.0,0.0,0.0,"(-1.0, 0.0, 0.0, 0.0, 0.0, 0.0, 0.0, 0.0, 0.0)",0.111,0.134,0.039,"(1.2184696791468346e-07, 0.0, 0.0, 0.0, 1.2184696791468346e-07, 0.0, 0.0, 0.0, 1.2184696791468346e-07)",0.3530394,-0.3138128,7.3157609,"(8.999999999999999e-08, 0.0, 0.0, 0.0, 8.999999999999999e-08, 0.0, 0.0, 0.0, 8.999999999999999e-08)"
2018/07/18/15:57:12.378175,2525,1531943832,377562268,base_link,0.0,0.0,0.0,0.0,"(-1.0, 0.0, 0.0, 0.0, 0.0, 0.0, 0.0, 0.0, 0.0)",0.044,-0.038,0.075,"(1.2184696791468346e-07, 0.0, 0.0, 0.0, 1.2184696791468346e-07, 0.0, 0.0, 0.0, 1.2184696791468346e-07)",0.2745862,-0.1372931,8.6494653,"(8.999999999999999e-08, 0.0, 0.0, 0.0, 8.999999999999999e-08, 0.0, 0.0, 0.0, 8.999999999999999e-08)"
2018/07/18/15:57:12.455703,2526,1531943832,454680622,base_link,0.0,0.0,0.0,0.0,"(-1.0, 0.0, 0.0, 0.0, 0.0, 0.0, 0.0, 0.0, 0.0)",0.049,-0.106,0.091,"(1.2184696791468346e-07, 0.0, 0.0, 0.0, 1.2184696791468346e-07, 0.0, 0.0, 0.0, 1.2184696791468346e-07)",0.12748645,0.1569064,10.1596894,"(8.999999999999999e-08, 0.0, 0.0, 0.0, 8.999999999999999e-08, 0.0, 0.0, 0.0, 8.999999999999999e-08)"
2018/07/18/15:57:12.550288,2527,1531943832,547687646,base_link,0.0,0.0,0.0,0.0,"(-1.0, 0.0, 0.0, 0.0, 0.0, 0.0, 0.0, 0.0, 0.0)",0.138,-0.092,0.074,"(1.2184696791468346e-07, 0.0, 0.0, 0.0, 1.2184696791468346e-07, 0.0, 0.0, 0.0, 1.2184696791468346e-07)",0.28439285,0.3138128,11.1011278,"(8.999999999999999e-08, 0.0, 0.0, 0.0, 8.999999999999999e-08, 0.0, 0.0, 0.0, 8.999999999999999e-08)"
2018/07/18/15:57:12.649998,2528,1531943832,648776204,base_link,0.0,0.0,0.0,0.0,"(-1.0, 0.0, 0.0, 0.0, 0.0, 0.0, 0.0, 0.0, 0.0)",0.062,-0.032,0.06,"(1.2184696791468346e-07, 0.0, 0.0, 0.0, 1.2184696791468346e-07, 0.0, 0.0, 0.0, 1.2184696791468346e-07)",0.392266,0.5295591,10.77750835,"(8.999999999999999e-08, 0.0, 0.0, 0.0, 8.999999999999999e-08, 0.0, 0.0, 0.0, 8.999999999999999e-08)"
2018/07/18/15:57:12.759257,2529,1531943832,758388881,base_link,0.0,0.0,0.0,0.0,"(-1.0, 0.0, 0.0, 0.0, 0.0, 0.0, 0.0, 0.0, 0.0)",-0.037,-0.019,0.022,"(1.2184696791468346e-07, 0.0, 0.0, 0.0, 1.2184696791468346e-07, 0.0, 0.0, 0.0, 1.2184696791468346e-07)",0.4707192,0.3138128,11.50320045,"(8.999999999999999e-08, 0.0, 0.0, 0.0, 8.999999999999999e-08, 0.0, 0.0, 0.0, 8.999999999999999e-08)"
2018/07/18/15:57:12.852404,2530,1531943832,851617471,base_link,0.0,0.0,0.0,0.0,"(-1.0, 0.0, 0.0, 0.0, 0.0, 0.0, 0.0, 0.0, 0.0)",-0.062,-0.046,5.63337527608e-18,"(1.2184696791468346e-07, 0.0, 0.0, 0.0, 1.2184696791468346e-07, 0.0, 0.0, 0.0, 1.2184696791468346e-07)",0.32361945,0.2745862,10.1400761,"(8.999999999999999e-08, 0.0, 0.0, 0.0, 8.999999999999999e-08, 0.0, 0.0, 0.0, 8.999999999999999e-08)"
2018/07/18/15:57:12.952139,2531,1531943832,949082040,base_link,0.0,0.0,0.0,0.0,"(-1.0, 0.0, 0.0, 0.0, 0.0, 0.0, 0.0, 0.0, 0.0)",-0.117,-0.095,-0.017,"(1.2184696791468346e-07, 0.0, 0.0, 0.0, 1.2184696791468346e-07, 0.0, 0.0, 0.0, 1.2184696791468346e-07)",0.1765197,0.2745862,9.9831697,"(8.999999999999999e-08, 0.0, 0.0, 0.0, 8.999999999999999e-08, 0.0, 0.0, 0.0, 8.999999999999999e-08)"
2018/07/18/15:57:13.056319,2532,1531943833,55014156,base_link,0.0,0.0,0.0,0.0,"(-1.0, 0.0, 0.0, 0.0, 0.0, 0.0, 0.0, 0.0, 0.0)",0.006,-0.042,-0.031,"(1.2184696791468346e-07, 0.0, 0.0, 0.0, 1.2184696791468346e-07, 0.0, 0.0, 0.0, 1.2184696791468346e-07)",0.14709975,0.2549729,10.3165958,"(8.999999999999999e-08, 0.0, 0.0, 0.0, 8.999999999999999e-08, 0.0, 0.0, 0.0, 8.999999999999999e-08)"
2018/07/18/15:57:13.165191,2533,1531943833,164846481,base_link,0.0,0.0,0.0,0.0,"(-1.0, 0.0, 0.0, 0.0, 0.0, 0.0, 0.0, 0.0, 0.0)",-0.019,-0.002,-0.029,"(1.2184696791468346e-07, 0.0, 0.0, 0.0, 1.2184696791468346e-07, 0.0, 0.0, 0.0, 1.2184696791468346e-07)",0.1569064,1.28983990403e-15,10.5323421,"(8.999999999999999e-08, 0.0, 0.0, 0.0, 8.999999999999999e-08, 0.0, 0.0, 0.0, 8.999999999999999e-08)"
2018/07/18/15:57:13.256030,2534,1531943833,252948607,base_link,0.0,0.0,0.0,0.0,"(-1.0, 0.0, 0.0, 0.0, 0.0, 0.0, 0.0, 0.0, 0.0)",0.087,0.07,0.006,"(1.2184696791468346e-07, 0.0, 0.0, 0.0, 1.2184696791468346e-07, 0.0, 0.0, 0.0, 1.2184696791468346e-07)",0.26477955,-0.1176798,10.5323421,"(8.999999999999999e-08, 0.0, 0.0, 0.0, 8.999999999999999e-08, 0.0, 0.0, 0.0, 8.999999999999999e-08)"
2018/07/18/15:57:13.354289,2535,1531943833,353519349,base_link,0.0,0.0,0.0,0.0,"(-1.0, 0.0, 0.0, 0.0, 0.0, 0.0, 0.0, 0.0, 0.0)",0.059,0.047,0.058,"(1.2184696791468346e-07, 0.0, 0.0, 0.0, 1.2184696791468346e-07, 0.0, 0.0, 0.0, 1.2184696791468346e-07)",0.2157463,0.02941995,9.22805765,"(8.999999999999999e-08, 0.0, 0.0, 0.0, 8.999999999999999e-08, 0.0, 0.0, 0.0, 8.999999999999999e-08)"
2018/07/18/15:57:13.444829,2536,1531943833,443256848,base_link,0.0,0.0,0.0,0.0,"(-1.0, 0.0, 0.0, 0.0, 0.0, 0.0, 0.0, 0.0, 0.0)",0.065,0.018,0.07,"(1.2184696791468346e-07, 0.0, 0.0, 0.0, 1.2184696791468346e-07, 0.0, 0.0, 0.0, 1.2184696791468346e-07)",0.06864655,0.12748645,7.9629998,"(8.999999999999999e-08, 0.0, 0.0, 0.0, 8.999999999999999e-08, 0.0, 0.0, 0.0, 8.999999999999999e-08)"
2018/07/18/15:57:13.570210,2537,1531943833,569695594,base_link,0.0,0.0,0.0,0.0,"(-1.0, 0.0, 0.0, 0.0, 0.0, 0.0, 0.0, 0.0, 0.0)",-0.052,-0.013,0.069,"(1.2184696791468346e-07, 0.0, 0.0, 0.0, 1.2184696791468346e-07, 0.0, 0.0, 0.0, 1.2184696791468346e-07)",-0.2549729,0.30400615,8.4729456,"(8.999999999999999e-08, 0.0, 0.0, 0.0, 8.999999999999999e-08, 0.0, 0.0, 0.0, 8.999999999999999e-08)"
2018/07/18/15:57:13.713274,2538,1531943833,712654364,base_link,0.0,0.0,0.0,0.0,"(-1.0, 0.0, 0.0, 0.0, 0.0, 0.0, 0.0, 0.0, 0.0)",-0.243,-0.024,0.03,"(1.2184696791468346e-07, 0.0, 0.0, 0.0, 1.2184696791468346e-07, 0.0, 0.0, 0.0, 1.2184696791468346e-07)",0.12748645,0.46091255,9.44380395,"(8.999999999999999e-08, 0.0, 0.0, 0.0, 8.999999999999999e-08, 0.0, 0.0, 0.0, 8.999999999999999e-08)"
2018/07/18/15:57:13.771985,2539,1531943833,770921782,base_link,0.0,0.0,0.0,0.0,"(-1.0, 0.0, 0.0, 0.0, 0.0, 0.0, 0.0, 0.0, 0.0)",-0.272,-0.009,0.012,"(1.2184696791468346e-07, 0.0, 0.0, 0.0, 1.2184696791468346e-07, 0.0, 0.0, 0.0, 1.2184696791468346e-07)",0.0196133,0.3530394,9.42419065,"(8.999999999999999e-08, 0.0, 0.0, 0.0, 8.999999999999999e-08, 0.0, 0.0, 0.0, 8.999999999999999e-08)"
2018/07/18/15:57:13.847673,2540,1531943833,847134005,base_link,0.0,0.0,0.0,0.0,"(-1.0, 0.0, 0.0, 0.0, 0.0, 0.0, 0.0, 0.0, 0.0)",-0.229,0.056,-0.051,"(1.2184696791468346e-07, 0.0, 0.0, 0.0, 1.2184696791468346e-07, 0.0, 0.0, 0.0, 1.2184696791468346e-07)",0.02941995,0.4118793,9.79684335,"(8.999999999999999e-08, 0.0, 0.0, 0.0, 8.999999999999999e-08, 0.0, 0.0, 0.0, 8.999999999999999e-08)"
2018/07/18/15:57:13.956685,2541,1531943833,956008869,base_link,0.0,0.0,0.0,0.0,"(-1.0, 0.0, 0.0, 0.0, 0.0, 0.0, 0.0, 0.0, 0.0)",-0.07,0.029,-0.089,"(1.2184696791468346e-07, 0.0, 0.0, 0.0, 1.2184696791468346e-07, 0.0, 0.0, 0.0, 1.2184696791468346e-07)",0.0,-0.02941995,8.34545915,"(8.999999999999999e-08, 0.0, 0.0, 0.0, 8.999999999999999e-08, 0.0, 0.0, 0.0, 8.999999999999999e-08)"
2018/07/18/15:57:14.055648,2542,1531943834,54755507,base_link,0.0,0.0,0.0,0.0,"(-1.0, 0.0, 0.0, 0.0, 0.0, 0.0, 0.0, 0.0, 0.0)",0.005,-0.002,-0.075,"(1.2184696791468346e-07, 0.0, 0.0, 0.0, 1.2184696791468346e-07, 0.0, 0.0, 0.0, 1.2184696791468346e-07)",-0.16671305,0.2745862,10.11065615,"(8.999999999999999e-08, 0.0, 0.0, 0.0, 8.999999999999999e-08, 0.0, 0.0, 0.0, 8.999999999999999e-08)"
2018/07/18/15:57:14.195255,2543,1531943834,194164147,base_link,0.0,0.0,0.0,0.0,"(-1.0, 0.0, 0.0, 0.0, 0.0, 0.0, 0.0, 0.0, 0.0)",0.02,0.048,-0.069,"(1.2184696791468346e-07, 0.0, 0.0, 0.0, 1.2184696791468346e-07, 0.0, 0.0, 0.0, 1.2184696791468346e-07)",-0.00980665,0.0392266,9.8262633,"(8.999999999999999e-08, 0.0, 0.0, 0.0, 8.999999999999999e-08, 0.0, 0.0, 0.0, 8.999999999999999e-08)"
2018/07/18/15:57:14.290585,2544,1531943834,287426372,base_link,0.0,0.0,0.0,0.0,"(-1.0, 0.0, 0.0, 0.0, 0.0, 0.0, 0.0, 0.0, 0.0)",0.0,0.008,-0.049,"(1.2184696791468346e-07, 0.0, 0.0, 0.0, 1.2184696791468346e-07, 0.0, 0.0, 0.0, 1.2184696791468346e-07)",-0.0980665,-0.0588399,9.01231135,"(8.999999999999999e-08, 0.0, 0.0, 0.0, 8.999999999999999e-08, 0.0, 0.0, 0.0, 8.999999999999999e-08)"
2018/07/18/15:57:14.349426,2545,1531943834,348751674,base_link,0.0,0.0,0.0,0.0,"(-1.0, 0.0, 0.0, 0.0, 0.0, 0.0, 0.0, 0.0, 0.0)",0.129,-0.089,-0.01,"(1.2184696791468346e-07, 0.0, 0.0, 0.0, 1.2184696791468346e-07, 0.0, 0.0, 0.0, 1.2184696791468346e-07)",-0.18632635,-0.10787315,9.32612415,"(8.999999999999999e-08, 0.0, 0.0, 0.0, 8.999999999999999e-08, 0.0, 0.0, 0.0, 8.999999999999999e-08)"
2018/07/18/15:57:14.474701,2546,1531943834,472559032,base_link,0.0,0.0,0.0,0.0,"(-1.0, 0.0, 0.0, 0.0, 0.0, 0.0, 0.0, 0.0, 0.0)",0.532,-0.079,0.04,"(1.2184696791468346e-07, 0.0, 0.0, 0.0, 1.2184696791468346e-07, 0.0, 0.0, 0.0, 1.2184696791468346e-07)",-0.2157463,0.08825985,11.1207411,"(8.999999999999999e-08, 0.0, 0.0, 0.0, 8.999999999999999e-08, 0.0, 0.0, 0.0, 8.999999999999999e-08)"
2018/07/18/15:57:14.582639,2547,1531943834,581968036,base_link,0.0,0.0,0.0,0.0,"(-1.0, 0.0, 0.0, 0.0, 0.0, 0.0, 0.0, 0.0, 0.0)",0.508,0.001,0.031,"(1.2184696791468346e-07, 0.0, 0.0, 0.0, 1.2184696791468346e-07, 0.0, 0.0, 0.0, 1.2184696791468346e-07)",0.02941995,1.40152995158e-15,11.44436055,"(8.999999999999999e-08, 0.0, 0.0, 0.0, 8.999999999999999e-08, 0.0, 0.0, 0.0, 8.999999999999999e-08)"
2018/07/18/15:57:14.666085,2548,1531943834,665346446,base_link,0.0,0.0,0.0,0.0,"(-1.0, 0.0, 0.0, 0.0, 0.0, 0.0, 0.0, 0.0, 0.0)",0.353,-0.052,0.091,"(1.2184696791468346e-07, 0.0, 0.0, 0.0, 1.2184696791468346e-07, 0.0, 0.0, 0.0, 1.2184696791468346e-07)",0.00980665,-0.1176798,10.6696352,"(8.999999999999999e-08, 0.0, 0.0, 0.0, 8.999999999999999e-08, 0.0, 0.0, 0.0, 8.999999999999999e-08)"
2018/07/18/15:57:14.779083,2549,1531943834,778650155,base_link,0.0,0.0,0.0,0.0,"(-1.0, 0.0, 0.0, 0.0, 0.0, 0.0, 0.0, 0.0, 0.0)",-0.109,-0.015,0.13,"(1.2184696791468346e-07, 0.0, 0.0, 0.0, 1.2184696791468346e-07, 0.0, 0.0, 0.0, 1.2184696791468346e-07)",0.0196133,-0.04903325,8.54159215,"(8.999999999999999e-08, 0.0, 0.0, 0.0, 8.999999999999999e-08, 0.0, 0.0, 0.0, 8.999999999999999e-08)"
2018/07/18/15:57:14.842576,2550,1531943834,839155787,base_link,0.0,0.0,0.0,0.0,"(-1.0, 0.0, 0.0, 0.0, 0.0, 0.0, 0.0, 0.0, 0.0)",-0.052,0.018,0.139,"(1.2184696791468346e-07, 0.0, 0.0, 0.0, 1.2184696791468346e-07, 0.0, 0.0, 0.0, 1.2184696791468346e-07)",-0.1569064,0.24516625,7.1392412,"(8.999999999999999e-08, 0.0, 0.0, 0.0, 8.999999999999999e-08, 0.0, 0.0, 0.0, 8.999999999999999e-08)"
2018/07/18/15:57:14.958145,2551,1531943834,957169103,base_link,0.0,0.0,0.0,0.0,"(-1.0, 0.0, 0.0, 0.0, 0.0, 0.0, 0.0, 0.0, 0.0)",0.066,-0.071,0.092,"(1.2184696791468346e-07, 0.0, 0.0, 0.0, 1.2184696791468346e-07, 0.0, 0.0, 0.0, 1.2184696791468346e-07)",0.0196133,0.48052585,8.65927195,"(8.999999999999999e-08, 0.0, 0.0, 0.0, 8.999999999999999e-08, 0.0, 0.0, 0.0, 8.999999999999999e-08)"
2018/07/18/15:57:15.053789,2552,1531943835,53386174,base_link,0.0,0.0,0.0,0.0,"(-1.0, 0.0, 0.0, 0.0, 0.0, 0.0, 0.0, 0.0, 0.0)",-0.07,-0.019,0.018,"(1.2184696791468346e-07, 0.0, 0.0, 0.0, 1.2184696791468346e-07, 0.0, 0.0, 0.0, 1.2184696791468346e-07)",0.06864655,0.42168595,9.7085835,"(8.999999999999999e-08, 0.0, 0.0, 0.0, 8.999999999999999e-08, 0.0, 0.0, 0.0, 8.999999999999999e-08)"
2018/07/18/15:57:15.176155,2553,1531943835,172332186,base_link,0.0,0.0,0.0,0.0,"(-1.0, 0.0, 0.0, 0.0, 0.0, 0.0, 0.0, 0.0, 0.0)",0.054,-0.011,-0.041,"(1.2184696791468346e-07, 0.0, 0.0, 0.0, 1.2184696791468346e-07, 0.0, 0.0, 0.0, 1.2184696791468346e-07)",-0.00980665,0.50013915,10.591182,"(8.999999999999999e-08, 0.0, 0.0, 0.0, 8.999999999999999e-08, 0.0, 0.0, 0.0, 8.999999999999999e-08)"
2018/07/18/15:57:15.254689,2554,1531943835,253556128,base_link,0.0,0.0,0.0,0.0,"(-1.0, 0.0, 0.0, 0.0, 0.0, 0.0, 0.0, 0.0, 0.0)",-0.191,-0.04,-0.072,"(1.2184696791468346e-07, 0.0, 0.0, 0.0, 1.2184696791468346e-07, 0.0, 0.0, 0.0, 1.2184696791468346e-07)",0.3726527,0.0196133,11.13054775,"(8.999999999999999e-08, 0.0, 0.0, 0.0, 8.999999999999999e-08, 0.0, 0.0, 0.0, 8.999999999999999e-08)"
2018/07/18/15:57:15.405657,2555,1531943835,402637070,base_link,0.0,0.0,0.0,0.0,"(-1.0, 0.0, 0.0, 0.0, 0.0, 0.0, 0.0, 0.0, 0.0)",-0.238,0.059,-0.021,"(1.2184696791468346e-07, 0.0, 0.0, 0.0, 1.2184696791468346e-07, 0.0, 0.0, 0.0, 1.2184696791468346e-07)",0.2745862,0.1372931,10.07142955,"(8.999999999999999e-08, 0.0, 0.0, 0.0, 8.999999999999999e-08, 0.0, 0.0, 0.0, 8.999999999999999e-08)"
2018/07/18/15:57:15.441094,2556,1531943835,440616385,base_link,0.0,0.0,0.0,0.0,"(-1.0, 0.0, 0.0, 0.0, 0.0, 0.0, 0.0, 0.0, 0.0)",-0.378,0.065,0.006,"(1.2184696791468346e-07, 0.0, 0.0, 0.0, 1.2184696791468346e-07, 0.0, 0.0, 0.0, 1.2184696791468346e-07)",0.12748645,0.22555295,8.38468575,"(8.999999999999999e-08, 0.0, 0.0, 0.0, 8.999999999999999e-08, 0.0, 0.0, 0.0, 8.999999999999999e-08)"
2018/07/18/15:57:15.556290,2557,1531943835,554389787,base_link,0.0,0.0,0.0,0.0,"(-1.0, 0.0, 0.0, 0.0, 0.0, 0.0, 0.0, 0.0, 0.0)",-0.676,-0.011,-0.077,"(1.2184696791468346e-07, 0.0, 0.0, 0.0, 1.2184696791468346e-07, 0.0, 0.0, 0.0, 1.2184696791468346e-07)",0.2745862,-0.50013915,8.77695175,"(8.999999999999999e-08, 0.0, 0.0, 0.0, 8.999999999999999e-08, 0.0, 0.0, 0.0, 8.999999999999999e-08)"
2018/07/18/15:57:15.677291,2558,1531943835,675401950,base_link,0.0,0.0,0.0,0.0,"(-1.0, 0.0, 0.0, 0.0, 0.0, 0.0, 0.0, 0.0, 0.0)",0.462,-0.042,0.064,"(1.2184696791468346e-07, 0.0, 0.0, 0.0, 1.2184696791468346e-07, 0.0, 0.0, 0.0, 1.2184696791468346e-07)",0.3334261,-0.8825985,6.080123,"(8.999999999999999e-08, 0.0, 0.0, 0.0, 8.999999999999999e-08, 0.0, 0.0, 0.0, 8.999999999999999e-08)"
2018/07/18/15:57:15.781892,2559,1531943835,781268633,base_link,0.0,0.0,0.0,0.0,"(-1.0, 0.0, 0.0, 0.0, 0.0, 0.0, 0.0, 0.0, 0.0)",0.495,-0.036,0.156,"(1.2184696791468346e-07, 0.0, 0.0, 0.0, 1.2184696791468346e-07, 0.0, 0.0, 0.0, 1.2184696791468346e-07)",0.2353596,-0.4707192,4.3541526,"(8.999999999999999e-08, 0.0, 0.0, 0.0, 8.999999999999999e-08, 0.0, 0.0, 0.0, 8.999999999999999e-08)"
2018/07/18/15:57:15.856448,2560,1531943835,854960634,base_link,0.0,0.0,0.0,0.0,"(-1.0, 0.0, 0.0, 0.0, 0.0, 0.0, 0.0, 0.0, 0.0)",0.174,-0.032,0.215,"(1.2184696791468346e-07, 0.0, 0.0, 0.0, 1.2184696791468346e-07, 0.0, 0.0, 0.0, 1.2184696791468346e-07)",0.1569064,0.2549729,5.48191735,"(8.999999999999999e-08, 0.0, 0.0, 0.0, 8.999999999999999e-08, 0.0, 0.0, 0.0, 8.999999999999999e-08)"
2018/07/18/15:57:15.972749,2561,1531943835,964204780,base_link,0.0,0.0,0.0,0.0,"(-1.0, 0.0, 0.0, 0.0, 0.0, 0.0, 0.0, 0.0, 0.0)",-0.102,-0.014,0.171,"(1.2184696791468346e-07, 0.0, 0.0, 0.0, 1.2184696791468346e-07, 0.0, 0.0, 0.0, 1.2184696791468346e-07)",0.196133,0.42168595,7.69822025,"(8.999999999999999e-08, 0.0, 0.0, 0.0, 8.999999999999999e-08, 0.0, 0.0, 0.0, 8.999999999999999e-08)"
2018/07/18/15:57:16.053561,2562,1531943836,52712250,base_link,0.0,0.0,0.0,0.0,"(-1.0, 0.0, 0.0, 0.0, 0.0, 0.0, 0.0, 0.0, 0.0)",-0.227,-0.019,0.125,"(1.2184696791468346e-07, 0.0, 0.0, 0.0, 1.2184696791468346e-07, 0.0, 0.0, 0.0, 1.2184696791468346e-07)",0.26477955,0.4903325,9.40457735,"(8.999999999999999e-08, 0.0, 0.0, 0.0, 8.999999999999999e-08, 0.0, 0.0, 0.0, 8.999999999999999e-08)"
2018/07/18/15:57:16.155823,2563,1531943836,154920900,base_link,0.0,0.0,0.0,0.0,"(-1.0, 0.0, 0.0, 0.0, 0.0, 0.0, 0.0, 0.0, 0.0)",-0.216,0.051,0.052,"(1.2184696791468346e-07, 0.0, 0.0, 0.0, 1.2184696791468346e-07, 0.0, 0.0, 0.0, 1.2184696791468346e-07)",0.67665885,0.71588545,9.34573745,"(8.999999999999999e-08, 0.0, 0.0, 0.0, 8.999999999999999e-08, 0.0, 0.0, 0.0, 8.999999999999999e-08)"
2018/07/18/15:57:16.294742,2564,1531943836,294018862,base_link,0.0,0.0,0.0,0.0,"(-1.0, 0.0, 0.0, 0.0, 0.0, 0.0, 0.0, 0.0, 0.0)",-0.192,0.071,-0.022,"(1.2184696791468346e-07, 0.0, 0.0, 0.0, 1.2184696791468346e-07, 0.0, 0.0, 0.0, 1.2184696791468346e-07)",0.9414384,0.5099458,10.40485565,"(8.999999999999999e-08, 0.0, 0.0, 0.0, 8.999999999999999e-08, 0.0, 0.0, 0.0, 8.999999999999999e-08)"
2018/07/18/15:57:16.378009,2565,1531943836,377159039,base_link,0.0,0.0,0.0,0.0,"(-1.0, 0.0, 0.0, 0.0, 0.0, 0.0, 0.0, 0.0, 0.0)",-0.091,0.054,-0.041,"(1.2184696791468346e-07, 0.0, 0.0, 0.0, 1.2184696791468346e-07, 0.0, 0.0, 0.0, 1.2184696791468346e-07)",1.176798,0.28439285,10.22833595,"(8.999999999999999e-08, 0.0, 0.0, 0.0, 8.999999999999999e-08, 0.0, 0.0, 0.0, 8.999999999999999e-08)"
2018/07/18/15:57:16.486458,2566,1531943836,484326572,base_link,0.0,0.0,0.0,0.0,"(-1.0, 0.0, 0.0, 0.0, 0.0, 0.0, 0.0, 0.0, 0.0)",0.273,0.049,-0.09,"(1.2184696791468346e-07, 0.0, 0.0, 0.0, 1.2184696791468346e-07, 0.0, 0.0, 0.0, 1.2184696791468346e-07)",0.93163175,0.34323275,9.63993695,"(8.999999999999999e-08, 0.0, 0.0, 0.0, 8.999999999999999e-08, 0.0, 0.0, 0.0, 8.999999999999999e-08)"
2018/07/18/15:57:16.558760,2567,1531943836,557957072,base_link,0.0,0.0,0.0,0.0,"(-1.0, 0.0, 0.0, 0.0, 0.0, 0.0, 0.0, 0.0, 0.0)",0.268,-0.049,-0.085,"(1.2184696791468346e-07, 0.0, 0.0, 0.0, 1.2184696791468346e-07, 0.0, 0.0, 0.0, 1.2184696791468346e-07)",0.79433865,0.5295591,10.30678915,"(8.999999999999999e-08, 0.0, 0.0, 0.0, 8.999999999999999e-08, 0.0, 0.0, 0.0, 8.999999999999999e-08)"
2018/07/18/15:57:16.673600,2568,1531943836,672888383,base_link,0.0,0.0,0.0,0.0,"(-1.0, 0.0, 0.0, 0.0, 0.0, 0.0, 0.0, 0.0, 0.0)",-0.002,-0.066,-0.051,"(1.2184696791468346e-07, 0.0, 0.0, 0.0, 1.2184696791468346e-07, 0.0, 0.0, 0.0, 1.2184696791468346e-07)",0.784532,0.57859235,11.2188076,"(8.999999999999999e-08, 0.0, 0.0, 0.0, 8.999999999999999e-08, 0.0, 0.0, 0.0, 8.999999999999999e-08)"
2018/07/18/15:57:16.802286,2569,1531943836,801647718,base_link,0.0,0.0,0.0,0.0,"(-1.0, 0.0, 0.0, 0.0, 0.0, 0.0, 0.0, 0.0, 0.0)",-0.233,-0.029,-0.019,"(1.2184696791468346e-07, 0.0, 0.0, 0.0, 1.2184696791468346e-07, 0.0, 0.0, 0.0, 1.2184696791468346e-07)",0.588399,0.55897905,11.2188076,"(8.999999999999999e-08, 0.0, 0.0, 0.0, 8.999999999999999e-08, 0.0, 0.0, 0.0, 8.999999999999999e-08)"
2018/07/18/15:57:16.850302,2570,1531943836,849535170,base_link,0.0,0.0,0.0,0.0,"(-1.0, 0.0, 0.0, 0.0, 0.0, 0.0, 0.0, 0.0, 0.0)",-0.188,0.017,0.007,"(1.2184696791468346e-07, 0.0, 0.0, 0.0, 1.2184696791468346e-07, 0.0, 0.0, 0.0, 1.2184696791468346e-07)",0.5687857,0.67665885,11.6699135,"(8.999999999999999e-08, 0.0, 0.0, 0.0, 8.999999999999999e-08, 0.0, 0.0, 0.0, 8.999999999999999e-08)"
2018/07/18/15:57:16.951167,2571,1531943836,950615961,base_link,0.0,0.0,0.0,0.0,"(-1.0, 0.0, 0.0, 0.0, 0.0, 0.0, 0.0, 0.0, 0.0)",-0.182,-0.01,-0.024,"(1.2184696791468346e-07, 0.0, 0.0, 0.0, 1.2184696791468346e-07, 0.0, 0.0, 0.0, 1.2184696791468346e-07)",0.7256921,0.392266,10.50292215,"(8.999999999999999e-08, 0.0, 0.0, 0.0, 8.999999999999999e-08, 0.0, 0.0, 0.0, 8.999999999999999e-08)"
2018/07/18/15:57:17.051547,2572,1531943837,50793660,base_link,0.0,0.0,0.0,0.0,"(-1.0, 0.0, 0.0, 0.0, 0.0, 0.0, 0.0, 0.0, 0.0)",-0.134,-0.049,-0.091,"(1.2184696791468346e-07, 0.0, 0.0, 0.0, 1.2184696791468346e-07, 0.0, 0.0, 0.0, 1.2184696791468346e-07)",0.55897905,0.34323275,11.375714,"(8.999999999999999e-08, 0.0, 0.0, 0.0, 8.999999999999999e-08, 0.0, 0.0, 0.0, 8.999999999999999e-08)"
2018/07/18/15:57:17.163194,2573,1531943837,159564505,base_link,0.0,0.0,0.0,0.0,"(-1.0, 0.0, 0.0, 0.0, 0.0, 0.0, 0.0, 0.0, 0.0)",-0.1,-0.011,-0.122,"(1.2184696791468346e-07, 0.0, 0.0, 0.0, 1.2184696791468346e-07, 0.0, 0.0, 0.0, 1.2184696791468346e-07)",0.28439285,0.2745862,11.0815145,"(8.999999999999999e-08, 0.0, 0.0, 0.0, 8.999999999999999e-08, 0.0, 0.0, 0.0, 8.999999999999999e-08)"
2018/07/18/15:57:17.311913,2574,1531943837,309977245,base_link,0.0,0.0,0.0,0.0,"(-1.0, 0.0, 0.0, 0.0, 0.0, 0.0, 0.0, 0.0, 0.0)",0.09,-0.122,-0.076,"(1.2184696791468346e-07, 0.0, 0.0, 0.0, 1.2184696791468346e-07, 0.0, 0.0, 0.0, 1.2184696791468346e-07)",0.44129925,-0.3530394,11.6503002,"(8.999999999999999e-08, 0.0, 0.0, 0.0, 8.999999999999999e-08, 0.0, 0.0, 0.0, 8.999999999999999e-08)"
2018/07/18/15:57:17.362466,2575,1531943837,358889710,base_link,0.0,0.0,0.0,0.0,"(-1.0, 0.0, 0.0, 0.0, 0.0, 0.0, 0.0, 0.0, 0.0)",0.114,-0.086,-0.038,"(1.2184696791468346e-07, 0.0, 0.0, 0.0, 1.2184696791468346e-07, 0.0, 0.0, 0.0, 1.2184696791468346e-07)",0.3138128,-0.22555295,11.571847,"(8.999999999999999e-08, 0.0, 0.0, 0.0, 8.999999999999999e-08, 0.0, 0.0, 0.0, 8.999999999999999e-08)"
2018/07/18/15:57:17.444332,2576,1531943837,442040448,base_link,0.0,0.0,0.0,0.0,"(-1.0, 0.0, 0.0, 0.0, 0.0, 0.0, 0.0, 0.0, 0.0)",0.205,-0.072,0.032,"(1.2184696791468346e-07, 0.0, 0.0, 0.0, 1.2184696791468346e-07, 0.0, 0.0, 0.0, 1.2184696791468346e-07)",0.2157463,-0.2941995,10.67944185,"(8.999999999999999e-08, 0.0, 0.0, 0.0, 8.999999999999999e-08, 0.0, 0.0, 0.0, 8.999999999999999e-08)"
2018/07/18/15:57:17.558962,2577,1531943837,557707785,base_link,0.0,0.0,0.0,0.0,"(-1.0, 0.0, 0.0, 0.0, 0.0, 0.0, 0.0, 0.0, 0.0)",0.135,-0.128,0.106,"(1.2184696791468346e-07, 0.0, 0.0, 0.0, 1.2184696791468346e-07, 0.0, 0.0, 0.0, 1.2184696791468346e-07)",0.02941995,0.18632635,11.16977435,"(8.999999999999999e-08, 0.0, 0.0, 0.0, 8.999999999999999e-08, 0.0, 0.0, 0.0, 8.999999999999999e-08)"
2018/07/18/15:57:17.667419,2578,1531943837,666619043,base_link,0.0,0.0,0.0,0.0,"(-1.0, 0.0, 0.0, 0.0, 0.0, 0.0, 0.0, 0.0, 0.0)",0.009,-0.173,0.093,"(1.2184696791468346e-07, 0.0, 0.0, 0.0, 1.2184696791468346e-07, 0.0, 0.0, 0.0, 1.2184696791468346e-07)",-0.0588399,0.3138128,11.8464332,"(8.999999999999999e-08, 0.0, 0.0, 0.0, 8.999999999999999e-08, 0.0, 0.0, 0.0, 8.999999999999999e-08)"
2018/07/18/15:57:17.756830,2579,1531943837,755775085,base_link,0.0,0.0,0.0,0.0,"(-1.0, 0.0, 0.0, 0.0, 0.0, 0.0, 0.0, 0.0, 0.0)",0.05,-0.171,0.05,"(1.2184696791468346e-07, 0.0, 0.0, 0.0, 1.2184696791468346e-07, 0.0, 0.0, 0.0, 1.2184696791468346e-07)",0.0392266,0.16671305,11.6503002,"(8.999999999999999e-08, 0.0, 0.0, 0.0, 8.999999999999999e-08, 0.0, 0.0, 0.0, 8.999999999999999e-08)"
2018/07/18/15:57:17.839709,2580,1531943837,838057609,base_link,0.0,0.0,0.0,0.0,"(-1.0, 0.0, 0.0, 0.0, 0.0, 0.0, 0.0, 0.0, 0.0)",0.051,-0.059,0.061,"(1.2184696791468346e-07, 0.0, 0.0, 0.0, 1.2184696791468346e-07, 0.0, 0.0, 0.0, 1.2184696791468346e-07)",0.0784532,0.28439285,11.36590735,"(8.999999999999999e-08, 0.0, 0.0, 0.0, 8.999999999999999e-08, 0.0, 0.0, 0.0, 8.999999999999999e-08)"
2018/07/18/15:57:17.980696,2581,1531943837,974079420,base_link,0.0,0.0,0.0,0.0,"(-1.0, 0.0, 0.0, 0.0, 0.0, 0.0, 0.0, 0.0, 0.0)",-0.049,0.007,0.037,"(1.2184696791468346e-07, 0.0, 0.0, 0.0, 1.2184696791468346e-07, 0.0, 0.0, 0.0, 1.2184696791468346e-07)",-0.10787315,0.06864655,9.26728425,"(8.999999999999999e-08, 0.0, 0.0, 0.0, 8.999999999999999e-08, 0.0, 0.0, 0.0, 8.999999999999999e-08)"
2018/07/18/15:57:18.085681,2582,1531943838,84642021,base_link,0.0,0.0,0.0,0.0,"(-1.0, 0.0, 0.0, 0.0, 0.0, 0.0, 0.0, 0.0, 0.0)",0.173,-0.034,0.07,"(1.2184696791468346e-07, 0.0, 0.0, 0.0, 1.2184696791468346e-07, 0.0, 0.0, 0.0, 1.2184696791468346e-07)",-0.10787315,0.24516625,9.63993695,"(8.999999999999999e-08, 0.0, 0.0, 0.0, 8.999999999999999e-08, 0.0, 0.0, 0.0, 8.999999999999999e-08)"
2018/07/18/15:57:18.155831,2583,1531943838,154689399,base_link,0.0,0.0,0.0,0.0,"(-1.0, 0.0, 0.0, 0.0, 0.0, 0.0, 0.0, 0.0, 0.0)",0.153,-0.026,0.079,"(1.2184696791468346e-07, 0.0, 0.0, 0.0, 1.2184696791468346e-07, 0.0, 0.0, 0.0, 1.2184696791468346e-07)",0.1372931,0.2745862,9.63993695,"(8.999999999999999e-08, 0.0, 0.0, 0.0, 8.999999999999999e-08, 0.0, 0.0, 0.0, 8.999999999999999e-08)"
2018/07/18/15:57:18.235067,2584,1531943838,234422516,base_link,0.0,0.0,0.0,0.0,"(-1.0, 0.0, 0.0, 0.0, 0.0, 0.0, 0.0, 0.0, 0.0)",0.132,-0.014,0.063,"(1.2184696791468346e-07, 0.0, 0.0, 0.0, 1.2184696791468346e-07, 0.0, 0.0, 0.0, 1.2184696791468346e-07)",0.0980665,0.06864655,9.79684335,"(8.999999999999999e-08, 0.0, 0.0, 0.0, 8.999999999999999e-08, 0.0, 0.0, 0.0, 8.999999999999999e-08)"
2018/07/18/15:57:18.376719,2585,1531943838,376279811,base_link,0.0,0.0,0.0,0.0,"(-1.0, 0.0, 0.0, 0.0, 0.0, 0.0, 0.0, 0.0, 0.0)",0.151,-0.038,0.028,"(1.2184696791468346e-07, 0.0, 0.0, 0.0, 1.2184696791468346e-07, 0.0, 0.0, 0.0, 1.2184696791468346e-07)",0.22555295,0.36284605,8.6494653,"(8.999999999999999e-08, 0.0, 0.0, 0.0, 8.999999999999999e-08, 0.0, 0.0, 0.0, 8.999999999999999e-08)"
2018/07/18/15:57:18.454636,2586,1531943838,453938074,base_link,0.0,0.0,0.0,0.0,"(-1.0, 0.0, 0.0, 0.0, 0.0, 0.0, 0.0, 0.0, 0.0)",0.159,-0.024,-0.048,"(1.2184696791468346e-07, 0.0, 0.0, 0.0, 1.2184696791468346e-07, 0.0, 0.0, 0.0, 1.2184696791468346e-07)",-0.0980665,0.4903325,7.2176944,"(8.999999999999999e-08, 0.0, 0.0, 0.0, 8.999999999999999e-08, 0.0, 0.0, 0.0, 8.999999999999999e-08)"
2018/07/18/15:57:18.556158,2587,1531943838,555497776,base_link,0.0,0.0,0.0,0.0,"(-1.0, 0.0, 0.0, 0.0, 0.0, 0.0, 0.0, 0.0, 0.0)",0.2,-0.058,-0.084,"(1.2184696791468346e-07, 0.0, 0.0, 0.0, 1.2184696791468346e-07, 0.0, 0.0, 0.0, 1.2184696791468346e-07)",0.2157463,0.3530394,8.12971285,"(8.999999999999999e-08, 0.0, 0.0, 0.0, 8.999999999999999e-08, 0.0, 0.0, 0.0, 8.999999999999999e-08)"
2018/07/18/15:57:18.655089,2588,1531943838,654464805,base_link,0.0,0.0,0.0,0.0,"(-1.0, 0.0, 0.0, 0.0, 0.0, 0.0, 0.0, 0.0, 0.0)",0.076,-0.02,-0.125,"(1.2184696791468346e-07, 0.0, 0.0, 0.0, 1.2184696791468346e-07, 0.0, 0.0, 0.0, 1.2184696791468346e-07)",0.0,0.10787315,9.0613446,"(8.999999999999999e-08, 0.0, 0.0, 0.0, 8.999999999999999e-08, 0.0, 0.0, 0.0, 8.999999999999999e-08)"
2018/07/18/15:57:18.774570,2589,1531943838,773998273,base_link,0.0,0.0,0.0,0.0,"(-1.0, 0.0, 0.0, 0.0, 0.0, 0.0, 0.0, 0.0, 0.0)",0.135,-0.043,-0.091,"(1.2184696791468346e-07, 0.0, 0.0, 0.0, 1.2184696791468346e-07, 0.0, 0.0, 0.0, 1.2184696791468346e-07)",0.1176798,0.14709975,10.3165958,"(8.999999999999999e-08, 0.0, 0.0, 0.0, 8.999999999999999e-08, 0.0, 0.0, 0.0, 8.999999999999999e-08)"
2018/07/18/15:57:18.851661,2590,1531943838,850165258,base_link,0.0,0.0,0.0,0.0,"(-1.0, 0.0, 0.0, 0.0, 0.0, 0.0, 0.0, 0.0, 0.0)",0.1,-0.044,-0.063,"(1.2184696791468346e-07, 0.0, 0.0, 0.0, 1.2184696791468346e-07, 0.0, 0.0, 0.0, 1.2184696791468346e-07)",0.16671305,0.28439285,10.9246081,"(8.999999999999999e-08, 0.0, 0.0, 0.0, 8.999999999999999e-08, 0.0, 0.0, 0.0, 8.999999999999999e-08)"
2018/07/18/15:57:18.990827,2591,1531943838,990273390,base_link,0.0,0.0,0.0,0.0,"(-1.0, 0.0, 0.0, 0.0, 0.0, 0.0, 0.0, 0.0, 0.0)",0.057,-0.024,-0.033,"(1.2184696791468346e-07, 0.0, 0.0, 0.0, 1.2184696791468346e-07, 0.0, 0.0, 0.0, 1.2184696791468346e-07)",0.16671305,0.2941995,10.0223963,"(8.999999999999999e-08, 0.0, 0.0, 0.0, 8.999999999999999e-08, 0.0, 0.0, 0.0, 8.999999999999999e-08)"
2018/07/18/15:57:19.052307,2592,1531943839,51770185,base_link,0.0,0.0,0.0,0.0,"(-1.0, 0.0, 0.0, 0.0, 0.0, 0.0, 0.0, 0.0, 0.0)",0.076,-0.03,-0.045,"(1.2184696791468346e-07, 0.0, 0.0, 0.0, 1.2184696791468346e-07, 0.0, 0.0, 0.0, 1.2184696791468346e-07)",0.14709975,0.14709975,10.52253545,"(8.999999999999999e-08, 0.0, 0.0, 0.0, 8.999999999999999e-08, 0.0, 0.0, 0.0, 8.999999999999999e-08)"
2018/07/18/15:57:19.163269,2593,1531943839,156803319,base_link,0.0,0.0,0.0,0.0,"(-1.0, 0.0, 0.0, 0.0, 0.0, 0.0, 0.0, 0.0, 0.0)",0.035,0.035,-0.008,"(1.2184696791468346e-07, 0.0, 0.0, 0.0, 1.2184696791468346e-07, 0.0, 0.0, 0.0, 1.2184696791468346e-07)",0.40207265,-0.57859235,10.99325465,"(8.999999999999999e-08, 0.0, 0.0, 0.0, 8.999999999999999e-08, 0.0, 0.0, 0.0, 8.999999999999999e-08)"
2018/07/18/15:57:19.249108,2594,1531943839,248402375,base_link,0.0,0.0,0.0,0.0,"(-1.0, 0.0, 0.0, 0.0, 0.0, 0.0, 0.0, 0.0, 0.0)",0.048,0.045,0.082,"(1.2184696791468346e-07, 0.0, 0.0, 0.0, 1.2184696791468346e-07, 0.0, 0.0, 0.0, 1.2184696791468346e-07)",0.42168595,-0.42168595,10.26756255,"(8.999999999999999e-08, 0.0, 0.0, 0.0, 8.999999999999999e-08, 0.0, 0.0, 0.0, 8.999999999999999e-08)"
2018/07/18/15:57:19.378033,2595,1531943839,376819163,base_link,0.0,0.0,0.0,0.0,"(-1.0, 0.0, 0.0, 0.0, 0.0, 0.0, 0.0, 0.0, 0.0)",0.044,0.012,0.083,"(1.2184696791468346e-07, 0.0, 0.0, 0.0, 1.2184696791468346e-07, 0.0, 0.0, 0.0, 1.2184696791468346e-07)",0.24516625,-0.5099458,6.14876955,"(8.999999999999999e-08, 0.0, 0.0, 0.0, 8.999999999999999e-08, 0.0, 0.0, 0.0, 8.999999999999999e-08)"
2018/07/18/15:57:19.452327,2596,1531943839,451286330,base_link,0.0,0.0,0.0,0.0,"(-1.0, 0.0, 0.0, 0.0, 0.0, 0.0, 0.0, 0.0, 0.0)",0.095,-0.011,0.158,"(1.2184696791468346e-07, 0.0, 0.0, 0.0, 1.2184696791468346e-07, 0.0, 0.0, 0.0, 1.2184696791468346e-07)",-0.0392266,0.20593965,5.7074703,"(8.999999999999999e-08, 0.0, 0.0, 0.0, 8.999999999999999e-08, 0.0, 0.0, 0.0, 8.999999999999999e-08)"
2018/07/18/15:57:19.588462,2597,1531943839,587615919,base_link,0.0,0.0,0.0,0.0,"(-1.0, 0.0, 0.0, 0.0, 0.0, 0.0, 0.0, 0.0, 0.0)",0.029,-0.092,0.031,"(1.2184696791468346e-07, 0.0, 0.0, 0.0, 1.2184696791468346e-07, 0.0, 0.0, 0.0, 1.2184696791468346e-07)",0.28439285,0.28439285,9.91452315,"(8.999999999999999e-08, 0.0, 0.0, 0.0, 8.999999999999999e-08, 0.0, 0.0, 0.0, 8.999999999999999e-08)"
2018/07/18/15:57:19.655906,2598,1531943839,655073122,base_link,0.0,0.0,0.0,0.0,"(-1.0, 0.0, 0.0, 0.0, 0.0, 0.0, 0.0, 0.0, 0.0)",0.026,-0.071,0.007,"(1.2184696791468346e-07, 0.0, 0.0, 0.0, 1.2184696791468346e-07, 0.0, 0.0, 0.0, 1.2184696791468346e-07)",0.2941995,0.2745862,10.9246081,"(8.999999999999999e-08, 0.0, 0.0, 0.0, 8.999999999999999e-08, 0.0, 0.0, 0.0, 8.999999999999999e-08)"
2018/07/18/15:57:19.752446,2599,1531943839,751773941,base_link,0.0,0.0,0.0,0.0,"(-1.0, 0.0, 0.0, 0.0, 0.0, 0.0, 0.0, 0.0, 0.0)",0.363,0.046,-0.06,"(1.2184696791468346e-07, 0.0, 0.0, 0.0, 1.2184696791468346e-07, 0.0, 0.0, 0.0, 1.2184696791468346e-07)",0.2941995,0.42168595,10.03220295,"(8.999999999999999e-08, 0.0, 0.0, 0.0, 8.999999999999999e-08, 0.0, 0.0, 0.0, 8.999999999999999e-08)"
2018/07/18/15:57:19.853982,2600,1531943839,852168219,base_link,0.0,0.0,0.0,0.0,"(-1.0, 0.0, 0.0, 0.0, 0.0, 0.0, 0.0, 0.0, 0.0)",0.247,0.106,-0.106,"(1.2184696791468346e-07, 0.0, 0.0, 0.0, 1.2184696791468346e-07, 0.0, 0.0, 0.0, 1.2184696791468346e-07)",0.12748645,0.5099458,8.32584585,"(8.999999999999999e-08, 0.0, 0.0, 0.0, 8.999999999999999e-08, 0.0, 0.0, 0.0, 8.999999999999999e-08)"
2018/07/18/15:57:19.950331,2601,1531943839,949392231,base_link,0.0,0.0,0.0,0.0,"(-1.0, 0.0, 0.0, 0.0, 0.0, 0.0, 0.0, 0.0, 0.0)",0.069,0.026,-0.167,"(1.2184696791468346e-07, 0.0, 0.0, 0.0, 1.2184696791468346e-07, 0.0, 0.0, 0.0, 1.2184696791468346e-07)",0.0,0.77472535,8.71811185,"(8.999999999999999e-08, 0.0, 0.0, 0.0, 8.999999999999999e-08, 0.0, 0.0, 0.0, 8.999999999999999e-08)"
2018/07/18/15:57:20.050683,2602,1531943840,50104618,base_link,0.0,0.0,0.0,0.0,"(-1.0, 0.0, 0.0, 0.0, 0.0, 0.0, 0.0, 0.0, 0.0)",0.083,-0.015,-0.259,"(1.2184696791468346e-07, 0.0, 0.0, 0.0, 1.2184696791468346e-07, 0.0, 0.0, 0.0, 1.2184696791468346e-07)",-0.02941995,0.30400615,9.5516771,"(8.999999999999999e-08, 0.0, 0.0, 0.0, 8.999999999999999e-08, 0.0, 0.0, 0.0, 8.999999999999999e-08)"
2018/07/18/15:57:20.199662,2603,1531943840,191125290,base_link,0.0,0.0,0.0,0.0,"(-1.0, 0.0, 0.0, 0.0, 0.0, 0.0, 0.0, 0.0, 0.0)",0.281,-0.045,-0.232,"(1.2184696791468346e-07, 0.0, 0.0, 0.0, 1.2184696791468346e-07, 0.0, 0.0, 0.0, 1.2184696791468346e-07)",-0.1569064,-0.32361945,8.12971285,"(8.999999999999999e-08, 0.0, 0.0, 0.0, 8.999999999999999e-08, 0.0, 0.0, 0.0, 8.999999999999999e-08)"
2018/07/18/15:57:20.284831,2604,1531943840,283321397,base_link,0.0,0.0,0.0,0.0,"(-1.0, 0.0, 0.0, 0.0, 0.0, 0.0, 0.0, 0.0, 0.0)",0.496,-0.075,-0.179,"(1.2184696791468346e-07, 0.0, 0.0, 0.0, 1.2184696791468346e-07, 0.0, 0.0, 0.0, 1.2184696791468346e-07)",-0.1176798,-0.3530394,9.0025047,"(8.999999999999999e-08, 0.0, 0.0, 0.0, 8.999999999999999e-08, 0.0, 0.0, 0.0, 8.999999999999999e-08)"
2018/07/18/15:57:20.351846,2605,1531943840,350337295,base_link,0.0,0.0,0.0,0.0,"(-1.0, 0.0, 0.0, 0.0, 0.0, 0.0, 0.0, 0.0, 0.0)",0.522,-0.004,-0.112,"(1.2184696791468346e-07, 0.0, 0.0, 0.0, 1.2184696791468346e-07, 0.0, 0.0, 0.0, 1.2184696791468346e-07)",-0.02941995,-0.2549729,9.67916355,"(8.999999999999999e-08, 0.0, 0.0, 0.0, 8.999999999999999e-08, 0.0, 0.0, 0.0, 8.999999999999999e-08)"
2018/07/18/15:57:20.476866,2606,1531943840,475949640,base_link,0.0,0.0,0.0,0.0,"(-1.0, 0.0, 0.0, 0.0, 0.0, 0.0, 0.0, 0.0, 0.0)",0.427,-0.064,-0.043,"(1.2184696791468346e-07, 0.0, 0.0, 0.0, 1.2184696791468346e-07, 0.0, 0.0, 0.0, 1.2184696791468346e-07)",0.0,0.02941995,9.97336305,"(8.999999999999999e-08, 0.0, 0.0, 0.0, 8.999999999999999e-08, 0.0, 0.0, 0.0, 8.999999999999999e-08)"
2018/07/18/15:57:20.553154,2607,1531943840,552630605,base_link,0.0,0.0,0.0,0.0,"(-1.0, 0.0, 0.0, 0.0, 0.0, 0.0, 0.0, 0.0, 0.0)",0.368,-0.103,-0.018,"(1.2184696791468346e-07, 0.0, 0.0, 0.0, 1.2184696791468346e-07, 0.0, 0.0, 0.0, 1.2184696791468346e-07)",-0.0784532,0.32361945,9.65955025,"(8.999999999999999e-08, 0.0, 0.0, 0.0, 8.999999999999999e-08, 0.0, 0.0, 0.0, 8.999999999999999e-08)"
2018/07/18/15:57:20.716997,2608,1531943840,715781155,base_link,0.0,0.0,0.0,0.0,"(-1.0, 0.0, 0.0, 0.0, 0.0, 0.0, 0.0, 0.0, 0.0)",0.159,-0.164,-0.047,"(1.2184696791468346e-07, 0.0, 0.0, 0.0, 1.2184696791468346e-07, 0.0, 0.0, 0.0, 1.2184696791468346e-07)",0.2549729,0.2941995,10.7284751,"(8.999999999999999e-08, 0.0, 0.0, 0.0, 8.999999999999999e-08, 0.0, 0.0, 0.0, 8.999999999999999e-08)"
2018/07/18/15:57:20.775696,2609,1531943840,774521696,base_link,0.0,0.0,0.0,0.0,"(-1.0, 0.0, 0.0, 0.0, 0.0, 0.0, 0.0, 0.0, 0.0)",0.148,-0.159,-0.083,"(1.2184696791468346e-07, 0.0, 0.0, 0.0, 1.2184696791468346e-07, 0.0, 0.0, 0.0, 1.2184696791468346e-07)",0.14709975,0.48052585,11.0226746,"(8.999999999999999e-08, 0.0, 0.0, 0.0, 8.999999999999999e-08, 0.0, 0.0, 0.0, 8.999999999999999e-08)"
2018/07/18/15:57:20.909749,2610,1531943840,908940783,base_link,0.0,0.0,0.0,0.0,"(-1.0, 0.0, 0.0, 0.0, 0.0, 0.0, 0.0, 0.0, 0.0)",0.186,-0.162,-0.168,"(1.2184696791468346e-07, 0.0, 0.0, 0.0, 1.2184696791468346e-07, 0.0, 0.0, 0.0, 1.2184696791468346e-07)",0.196133,0.6080123,11.2972608,"(8.999999999999999e-08, 0.0, 0.0, 0.0, 8.999999999999999e-08, 0.0, 0.0, 0.0, 8.999999999999999e-08)"
2018/07/18/15:57:20.946800,2611,1531943840,946226831,base_link,0.0,0.0,0.0,0.0,"(-1.0, 0.0, 0.0, 0.0, 0.0, 0.0, 0.0, 0.0, 0.0)",0.166,-0.143,-0.192,"(1.2184696791468346e-07, 0.0, 0.0, 0.0, 1.2184696791468346e-07, 0.0, 0.0, 0.0, 1.2184696791468346e-07)",0.3334261,0.50013915,11.1599677,"(8.999999999999999e-08, 0.0, 0.0, 0.0, 8.999999999999999e-08, 0.0, 0.0, 0.0, 8.999999999999999e-08)"
2018/07/18/15:57:21.043303,2612,1531943841,39532365,base_link,0.0,0.0,0.0,0.0,"(-1.0, 0.0, 0.0, 0.0, 0.0, 0.0, 0.0, 0.0, 0.0)",0.154,-0.053,-0.246,"(1.2184696791468346e-07, 0.0, 0.0, 0.0, 1.2184696791468346e-07, 0.0, 0.0, 0.0, 1.2184696791468346e-07)",0.10787315,0.67665885,10.62060195,"(8.999999999999999e-08, 0.0, 0.0, 0.0, 8.999999999999999e-08, 0.0, 0.0, 0.0, 8.999999999999999e-08)"
2018/07/18/15:57:21.145513,2613,1531943841,143195153,base_link,0.0,0.0,0.0,0.0,"(-1.0, 0.0, 0.0, 0.0, 0.0, 0.0, 0.0, 0.0, 0.0)",0.169,-0.045,-0.29,"(1.2184696791468346e-07, 0.0, 0.0, 0.0, 1.2184696791468346e-07, 0.0, 0.0, 0.0, 1.2184696791468346e-07)",-0.02941995,0.6864655,10.05181625,"(8.999999999999999e-08, 0.0, 0.0, 0.0, 8.999999999999999e-08, 0.0, 0.0, 0.0, 8.999999999999999e-08)"
2018/07/18/15:57:21.272333,2614,1531943841,271299439,base_link,0.0,0.0,0.0,0.0,"(-1.0, 0.0, 0.0, 0.0, 0.0, 0.0, 0.0, 0.0, 0.0)",0.28,-0.046,-0.341,"(1.2184696791468346e-07, 0.0, 0.0, 0.0, 1.2184696791468346e-07, 0.0, 0.0, 0.0, 1.2184696791468346e-07)",-0.0980665,0.2941995,8.9436648,"(8.999999999999999e-08, 0.0, 0.0, 0.0, 8.999999999999999e-08, 0.0, 0.0, 0.0, 8.999999999999999e-08)"
2018/07/18/15:57:21.344699,2615,1531943841,344340610,base_link,0.0,0.0,0.0,0.0,"(-1.0, 0.0, 0.0, 0.0, 0.0, 0.0, 0.0, 0.0, 0.0)",0.22,-0.092,-0.333,"(1.2184696791468346e-07, 0.0, 0.0, 0.0, 1.2184696791468346e-07, 0.0, 0.0, 0.0, 1.2184696791468346e-07)",0.1372931,0.1372931,9.3163175,"(8.999999999999999e-08, 0.0, 0.0, 0.0, 8.999999999999999e-08, 0.0, 0.0, 0.0, 8.999999999999999e-08)"
2018/07/18/15:57:21.450824,2616,1531943841,450141099,base_link,0.0,0.0,0.0,0.0,"(-1.0, 0.0, 0.0, 0.0, 0.0, 0.0, 0.0, 0.0, 0.0)",0.165,-0.138,-0.325,"(1.2184696791468346e-07, 0.0, 0.0, 0.0, 1.2184696791468346e-07, 0.0, 0.0, 0.0, 1.2184696791468346e-07)",-0.0980665,0.3138128,8.85540495,"(8.999999999999999e-08, 0.0, 0.0, 0.0, 8.999999999999999e-08, 0.0, 0.0, 0.0, 8.999999999999999e-08)"
2018/07/18/15:57:21.568244,2617,1531943841,561065847,base_link,0.0,0.0,0.0,0.0,"(-1.0, 0.0, 0.0, 0.0, 0.0, 0.0, 0.0, 0.0, 0.0)",0.283,-0.219,-0.327,"(1.2184696791468346e-07, 0.0, 0.0, 0.0, 1.2184696791468346e-07, 0.0, 0.0, 0.0, 1.2184696791468346e-07)",0.14709975,-0.02941995,9.83606995,"(8.999999999999999e-08, 0.0, 0.0, 0.0, 8.999999999999999e-08, 0.0, 0.0, 0.0, 8.999999999999999e-08)"
2018/07/18/15:57:21.657366,2618,1531943841,656461374,base_link,0.0,0.0,0.0,0.0,"(-1.0, 0.0, 0.0, 0.0, 0.0, 0.0, 0.0, 0.0, 0.0)",0.277,-0.292,-0.298,"(1.2184696791468346e-07, 0.0, 0.0, 0.0, 1.2184696791468346e-07, 0.0, 0.0, 0.0, 1.2184696791468346e-07)",0.18632635,0.2353596,11.28745415,"(8.999999999999999e-08, 0.0, 0.0, 0.0, 8.999999999999999e-08, 0.0, 0.0, 0.0, 8.999999999999999e-08)"
